subject,acc,RT,Code,seq,actionseq,timeseq,trial
6200,0,0.844315399997868,2,1,1,1,39
6200,1,0.81670630001463,2,2,2,2,39
6200,0,0.766405899892561,3,3,2,3,39
6200,0,0.741630999953486,1,3,2,4,39
6200,0,0.862276999978349,3,1,1,5,39
6200,1,0.714210600010119,2,3,2,6,39
6200,1,0.37971040001139,2,2,2,7,39
6200,1,0.570899900048971,1,1,1,8,39
6200,1,0.546238400042057,2,2,2,9,39
6200,1,0.683082800009288,1,1,1,10,39
6200,1,0.429609999991953,2,2,2,11,39
6200,1,0.71467080002185,2,3,2,12,39
6200,1,0.804045800003223,2,3,2,13,39
6200,1,1.46639820002019,2,2,2,14,39
6200,1,1.17369500000495,1,1,1,15,39
6200,1,0.437003799946979,2,2,2,16,39
6200,1,0.417436599964276,2,3,2,17,39
6200,1,0.430983400088735,1,1,1,18,39
6200,1,0.411715299938805,2,3,2,19,39
6200,1,0.409659800003283,2,2,2,20,39
6200,1,0.423415099969134,1,1,1,21,39
6200,0,0.333009899943136,2,1,1,22,39
6200,1,0.845589200034738,2,3,2,23,39
6200,1,0.578358799917623,1,1,1,24,39
6200,1,0.481828200048767,2,2,2,25,39
6200,1,0.892125099897385,2,2,2,26,39
6200,1,0.73502310004551,2,3,2,27,39
6200,1,0.591297199949622,2,2,2,28,39
6200,1,0.35003199998755,1,1,1,29,39
6200,1,0.382203600020148,2,3,2,30,39
6200,1,0.500751600018702,2,3,2,31,39
6200,1,0.439032100024633,2,2,2,32,39
6200,1,0.467715899925679,2,3,2,33,39
6200,0,0.342713800026104,2,1,1,34,39
6200,1,0.487629399984144,2,2,2,35,39
6200,0,0.434235200053081,2,1,1,36,39
6200,1,0.527019800036214,1,1,1,37,39
6200,1,0.560035099973902,2,3,2,38,39
6200,1,0.520036099944264,2,2,2,39,39
6200,0,0.978229900007136,2,1,1,40,78
6200,0,0.865503899985924,2,2,1,41,78
6200,1,0.668989100027829,2,3,2,42,78
6200,-1,-1,-1,4,2,43,78
6200,1,0.95438670006115,3,5,3,44,78
6200,0,1.42634440003894,1,6,3,45,78
6200,0,1.2315897999797,3,1,1,46,78
6200,0,1.31641369999852,2,5,3,47,78
6200,0,1.18932549993042,1,4,2,48,78
6200,0,0.892051300033927,1,3,2,49,78
6200,0,1.03874650003854,3,2,1,50,78
6200,1,1.06759940006305,2,3,2,51,78
6200,0,1.01496569998562,1,4,2,52,78
6200,0,1.34012129995972,1,6,3,53,78
6200,1,0.644722400000319,3,6,3,54,78
6200,0,0.953345900052227,3,2,1,55,78
6200,0,0.945594600052573,3,1,1,56,78
6200,1,0.866262699943036,3,5,3,57,78
6200,1,0.893460800056346,1,1,1,58,78
6200,1,1.45630259998143,1,2,1,59,78
6200,-1,-1,-1,3,2,60,78
6200,1,1.35043659992516,2,4,2,61,78
6200,1,0.902064700028859,3,5,3,62,78
6200,0,1.30420989997219,1,6,3,63,78
6200,1,1.02606970001943,1,2,1,64,78
6200,0,0.703540500020608,1,5,3,65,78
6200,1,1.34573820000514,2,3,2,66,78
6200,0,1.12216469994746,1,6,3,67,78
6200,0,0.827561000012793,1,4,2,68,78
6200,-1,-1,-1,1,1,69,78
6200,0,0.938993999967352,3,4,2,70,78
6200,1,0.379569199983962,2,4,2,71,78
6200,1,0.914806400076486,1,2,1,72,78
6200,1,0.844465700094588,3,6,3,73,78
6200,1,0.392806999967434,3,5,3,74,78
6200,0,1.31150069995783,1,3,2,75,78
6200,1,1.10575160000008,1,1,1,76,78
6200,0,1.25127339991741,1,6,3,77,78
6200,-1,-1,-1,3,2,78,78
6200,1,1.20162519998848,3,5,3,79,78
6200,1,1.27163089998066,1,2,1,80,78
6200,1,0.802617299952544,2,4,2,81,78
6200,1,0.816708399914205,1,2,1,82,78
6200,0,1.0302670999663,3,1,1,83,78
6200,1,0.723067000042647,1,1,1,84,78
6200,1,0.71597640006803,3,5,3,85,78
6200,1,0.549768400029279,2,3,2,86,78
6200,0,0.813667700043879,1,6,3,87,78
6200,1,0.45889500004705,3,6,3,88,78
6200,1,0.534571700030938,3,5,3,89,78
6200,0,0.799245899892412,1,4,2,90,78
6200,1,0.773697600001469,2,3,2,91,78
6200,1,0.797122900024988,1,2,1,92,78
6200,1,0.795103299897164,2,3,2,93,78
6200,0,1.23339479998685,2,1,1,94,78
6200,-1,-1,-1,2,1,95,78
6200,1,1.17642819997855,3,5,3,96,78
6200,1,0.943355800001882,1,1,1,97,78
6200,1,0.736011500004679,2,4,2,98,78
6200,1,0.824825900024734,3,6,3,99,78
6200,0,0.85427350003738,1,4,2,100,78
6200,1,0.76230109995231,3,5,3,101,78
6200,1,1.15504250000231,2,3,2,102,78
6200,1,1.32234059995972,1,1,1,103,78
6200,1,0.523696399992332,1,1,1,104,78
6200,0,0.885020699934103,2,6,3,105,78
6200,1,0.687702799914405,1,2,1,106,78
6200,1,0.706313700065948,2,3,2,107,78
6200,1,0.660353900049813,3,6,3,108,78
6200,0,1.14438220008742,2,5,3,109,78
6200,1,0.736963800038211,1,2,1,110,78
6200,1,0.881411899928935,2,4,2,111,78
6200,1,0.548386599984951,2,4,2,112,78
6200,0,1.10835320001934,3,1,1,113,78
6200,0,1.27790490002371,3,2,1,114,78
6200,1,0.961770400055684,3,6,3,115,78
6200,1,0.625562200089917,1,2,1,116,78
6200,1,0.583101500058547,2,3,2,117,78
6200,0,1.27004350000061,2,1,1,118,39
6200,0,0.849668700015172,2,2,3,119,39
6200,0,0.557396800024435,2,3,3,120,39
6200,1,1.02958940004464,3,3,3,121,39
6200,0,0.683073899941519,3,1,1,122,39
6200,1,0.813551200088114,3,3,3,123,39
6200,1,0.826919200015254,3,2,3,124,39
6200,1,0.544432500028051,1,1,1,125,39
6200,1,0.272959899972193,3,2,3,126,39
6200,1,1.08400830009487,1,1,1,127,39
6200,1,0.511077999952249,3,2,3,128,39
6200,1,0.721020399942063,3,3,3,129,39
6200,0,0.514365599956363,1,3,3,130,39
6200,1,1.25940490001813,3,2,3,131,39
6200,1,0.391447899979539,1,1,1,132,39
6200,1,0.43037119996734,3,2,3,133,39
6200,1,0.746939399978146,3,3,3,134,39
6200,1,0.483066999935545,1,1,1,135,39
6200,1,0.357447699992917,3,3,3,136,39
6200,1,0.429662300040945,3,2,3,137,39
6200,1,0.563004800002091,1,1,1,138,39
6200,1,0.530966100050136,1,1,1,139,39
6200,1,0.491376599995419,3,3,3,140,39
6200,1,0.534192200051621,1,1,1,141,39
6200,1,0.519051200011745,3,2,3,142,39
6200,1,0.496198999928311,3,2,3,143,39
6200,1,0.595136799965985,3,3,3,144,39
6200,1,0.497748999972828,3,2,3,145,39
6200,1,0.563828299986199,1,1,1,146,39
6200,1,0.522961999988183,3,3,3,147,39
6200,1,0.500338400015607,3,3,3,148,39
6200,1,0.541975199943408,3,2,3,149,39
6200,1,0.463017399888486,3,3,3,150,39
6200,1,0.65908989997115,1,1,1,151,39
6200,1,0.47110620001331,3,2,3,152,39
6200,1,0.458395300083794,1,1,1,153,39
6200,1,0.678370599984191,1,1,1,154,39
6200,1,0.481427700025961,3,3,3,155,39
6200,1,0.468298899941146,3,2,3,156,39
6200,1,1.35485989996232,2,1,2,157,39
6200,0,0.867066200007685,3,2,2,158,39
6200,1,0.694449799950235,1,3,1,159,39
6200,1,0.65670739999041,1,3,1,160,39
6200,1,0.548787599895149,2,1,2,161,39
6200,1,0.524782199994661,1,3,1,162,39
6200,1,1.04623100010213,2,2,2,163,39
6200,1,0.810952999978326,2,1,2,164,39
6200,1,0.593060899991542,2,2,2,165,39
6200,1,0.399405100033619,2,1,2,166,39
6200,1,0.549838099977933,2,2,2,167,39
6200,1,0.381395600037649,1,3,1,168,39
6200,1,0.420306400046684,1,3,1,169,39
6200,1,0.40934350003954,2,2,2,170,39
6200,1,0.439706000033766,2,1,2,171,39
6200,1,0.500313999946229,2,2,2,172,39
6200,1,0.614298800006509,1,3,1,173,39
6200,1,0.515620200079866,2,1,2,174,39
6200,1,0.516850999905728,1,3,1,175,39
6200,1,0.47836039995309,2,2,2,176,39
6200,1,0.617747500073165,2,1,2,177,39
6200,1,0.414757500053383,2,1,2,178,39
6200,1,0.56405609997455,1,3,1,179,39
6200,1,0.475661900010891,2,1,2,180,39
6200,1,0.718714800081216,2,2,2,181,39
6200,1,0.480433600023389,2,2,2,182,39
6200,1,0.523082899977453,1,3,1,183,39
6200,1,0.484246699954383,2,2,2,184,39
6200,1,0.558828499983065,2,1,2,185,39
6200,1,0.591119999997318,1,3,1,186,39
6200,1,0.613643400021829,1,3,1,187,39
6200,1,0.594932400039397,2,2,2,188,39
6200,1,0.521679099998437,1,3,1,189,39
6200,1,0.650617599952966,2,1,2,190,39
6200,1,0.559072499978356,2,2,2,191,39
6200,0,0.502740900032222,1,1,2,192,39
6200,1,0.616647799964994,2,1,2,193,39
6200,1,0.502052399911918,1,3,1,194,39
6200,1,0.488466300070286,2,2,2,195,39
6200,1,0.489022199995816,2,1,2,196,78
6200,-1,-1,-1,2,2,197,78
6200,1,0.837645699968562,3,3,3,198,78
6200,0,1.25841979996767,1,4,3,199,78
6200,0,0.70235869998578,3,5,1,200,78
6200,0,1.31205529998988,2,6,1,201,78
6200,1,0.506397100049071,2,1,2,202,78
6200,0,0.764312200015411,2,5,1,203,78
6200,0,0.523377399891615,2,4,3,204,78
6200,0,0.533096799976192,2,3,3,205,78
6200,1,0.413819800014608,2,2,2,206,78
6200,1,1.1790077999467,3,3,3,207,78
6200,1,0.642393600079231,3,4,3,208,78
6200,1,0.750766600016505,1,6,1,209,78
6200,1,0.630954700056463,1,6,1,210,78
6200,0,0.627657399978489,1,2,2,211,78
6200,1,0.768983899964951,2,1,2,212,78
6200,1,0.800551400054246,1,5,1,213,78
6200,1,0.694336899905466,2,1,2,214,78
6200,1,0.801058300072327,2,2,2,215,78
6200,1,0.814714999985881,3,3,3,216,78
6200,1,0.307951599941589,3,4,3,217,78
6200,1,0.413992599933408,1,5,1,218,78
6200,0,0.891643999959342,2,6,1,219,78
6200,-1,-1,-1,2,2,220,78
6200,0,0.632245499989949,3,5,1,221,78
6200,0,0.957133900024928,2,3,3,222,78
6200,0,0.692768600070849,2,6,1,223,78
6200,1,0.85559709998779,3,4,3,224,78
6200,1,0.891359600005671,2,1,2,225,78
6200,1,0.654125400003977,3,4,3,226,78
6200,0,1.09048150002491,2,4,3,227,78
6200,1,1.00495049997699,2,2,2,228,78
6200,0,1.05915059999097,3,6,1,229,78
6200,1,0.814962999895215,1,5,1,230,78
6200,1,1.08425379998516,3,3,3,231,78
6200,1,0.646937099983916,2,1,2,232,78
6200,1,0.395206999965012,1,6,1,233,78
6200,1,0.80193119996693,3,3,3,234,78
6200,1,0.55973440001253,1,5,1,235,78
6200,0,0.727467100019567,3,2,2,236,78
6200,0,1.12118579994421,2,4,3,237,78
6200,1,0.954146199976094,2,2,2,238,78
6200,0,0.594010000000708,1,1,2,239,78
6200,1,0.609047000063583,2,1,2,240,78
6200,1,0.647062300005928,1,5,1,241,78
6200,0,0.739080199971795,2,3,3,242,78
6200,1,0.467624599928968,1,6,1,243,78
6200,1,0.526843299972825,1,6,1,244,78
6200,1,0.752477900008671,1,5,1,245,78
6200,1,0.728363399975933,3,4,3,246,78
6200,1,0.393377700005658,3,3,3,247,78
6200,1,0.840122599969618,2,2,2,248,78
6200,1,0.836935000028461,3,3,3,249,78
6200,1,0.62575830006972,2,1,2,250,78
6200,0,0.89479500008747,3,2,2,251,78
6200,0,0.577843500068411,3,5,1,252,78
6200,1,0.576740300050005,2,1,2,253,78
6200,0,0.7364910999313,1,4,3,254,78
6200,1,1.01708739995956,1,6,1,255,78
6200,1,0.750323800020851,3,4,3,256,78
6200,1,0.638547600014135,1,5,1,257,78
6200,1,0.755100500071421,3,3,3,258,78
6200,1,0.483065899927169,2,1,2,259,78
6200,1,0.973863600054756,2,1,2,260,78
6200,1,0.677036799956113,1,6,1,261,78
6200,1,0.680434199981391,2,2,2,262,78
6200,1,0.899076199973933,3,3,3,263,78
6200,1,0.572981600067578,1,6,1,264,78
6200,1,0.956398200010881,1,5,1,265,78
6200,0,0.828347299946472,3,2,2,266,78
6200,1,0.809337300015613,3,4,3,267,78
6200,1,0.567829200066626,3,4,3,268,78
6200,1,0.542947700014338,2,1,2,269,78
6200,1,0.655417899950407,2,2,2,270,78
6200,1,0.531620200024918,1,6,1,271,78
6200,1,1.34805179992691,2,2,2,272,78
6200,1,0.636487799929455,3,3,3,273,78
6200,-1,-1,-1,1,3,274,39
6200,0,0.546232499997132,3,2,2,275,39
6200,1,0.674874000018463,3,3,3,276,39
6200,1,0.702459200052544,3,3,3,277,39
6200,0,0.792313399957493,2,1,3,278,39
6200,-1,-1,-1,3,3,279,39
6200,0,0.873181400005706,1,2,2,280,39
6200,0,0.596267699962482,1,1,3,281,39
6200,1,1.19496380002238,2,2,2,282,39
6200,1,0.585759500041604,3,1,3,283,39
6200,1,0.704321999917738,2,2,2,284,39
6200,1,0.426713100052439,3,3,3,285,39
6200,1,0.631828699959442,3,3,3,286,39
6200,1,0.724463099963032,2,2,2,287,39
6200,0,1.0220052000368,2,1,3,288,39
6200,0,0.610993099980988,3,2,2,289,39
6200,1,0.713062299997546,3,3,3,290,39
6200,1,0.435119500034489,3,1,3,291,39
6200,1,0.775774399982765,3,3,3,292,39
6200,0,1.07114430004731,3,2,2,293,39
6200,1,0.602416899986565,3,1,3,294,39
6200,1,0.480284199933521,3,1,3,295,39
6200,1,0.594905899954028,3,3,3,296,39
6200,1,0.505712900077924,3,1,3,297,39
6200,1,1.02032439992763,2,2,2,298,39
6200,1,0.448709100019187,2,2,2,299,39
6200,1,0.469016300048679,3,3,3,300,39
6200,1,0.664495000033639,2,2,2,301,39
6200,1,0.587380000040866,3,1,3,302,39
6200,1,0.834296100074425,3,3,3,303,39
6200,1,0.606738200061955,3,3,3,304,39
6200,1,0.541066400008276,2,2,2,305,39
6200,1,0.637757999938913,3,3,3,306,39
6200,1,0.729967599967495,3,1,3,307,39
6200,1,0.56299989996478,2,2,2,308,39
6200,1,0.54697689996101,3,1,3,309,39
6200,1,0.507009700057097,3,1,3,310,39
6200,1,0.94073789997492,3,3,3,311,39
6200,1,0.549525099922903,2,2,2,312,39
6200,0,0.707035599974915,2,1,3,313,78
6200,0,0.692895599990152,2,2,3,314,78
6200,0,0.57565680006519,2,3,1,315,78
6200,0,0.558998099993914,2,4,1,316,78
6200,1,0.526719499961473,2,5,2,317,78
6200,1,0.928509299992584,2,6,2,318,78
6200,1,0.881446499959566,3,1,3,319,78
6200,0,0.48406339995563,3,5,2,320,78
6200,0,1.40685829997528,3,4,1,321,78
6200,0,0.716963800019585,3,3,1,322,78
6200,1,0.566155400010757,3,2,3,323,78
6200,0,0.925305500044487,3,3,1,324,78
6200,0,0.678993099951185,2,4,1,325,78
6200,1,0.906345100025646,2,6,2,326,78
6200,1,0.588105599978007,2,6,2,327,78
6200,1,1.00275949994102,3,2,3,328,78
6200,1,1.25662640004884,3,1,3,329,78
6200,1,0.780922099947929,2,5,2,330,78
6200,0,0.691581699997187,2,1,3,331,78
6200,1,1.43044010002632,3,2,3,332,78
6200,-1,-1,-1,3,1,333,78
6200,0,1.02097409998532,2,4,1,334,78
6200,1,1.18634230003227,2,5,2,335,78
6200,1,1.377024800051,2,6,2,336,78
6200,1,0.872031899983995,3,2,3,337,78
6200,0,0.915604099980555,3,5,2,338,78
6200,1,0.917227300000377,1,3,1,339,78
6200,0,0.614005899988115,1,6,2,340,78
6200,1,0.939820899977349,1,4,1,341,78
6200,0,1.34029250009917,1,1,3,342,78
6200,1,1.14900209999178,1,4,1,343,78
6200,1,0.525018600048497,1,4,1,344,78
6200,1,0.526426899945363,3,2,3,345,78
6200,1,0.831723200040869,2,6,2,346,78
6200,1,0.692025800002739,2,5,2,347,78
6200,1,0.911010999931023,1,3,1,348,78
6200,0,1.03322620003019,2,1,3,349,78
6200,1,1.12568920000922,2,6,2,350,78
6200,1,1.13525419996586,1,3,1,351,78
6200,1,0.799852599971928,2,5,2,352,78
6200,1,0.645510799949989,3,2,3,353,78
6200,1,0.882346300058998,1,4,1,354,78
6200,1,0.924766200012527,3,2,3,355,78
6200,1,0.654064300004393,3,1,3,356,78
6200,1,0.666339499992318,3,1,3,357,78
6200,1,0.741679099970497,2,5,2,358,78
6200,1,0.654192700050771,1,3,1,359,78
6200,1,0.986460400046781,2,6,2,360,78
6200,1,0.577011499903165,2,6,2,361,78
6200,1,0.784146600053646,2,5,2,362,78
6200,1,0.855124299996532,1,4,1,363,78
6200,1,0.642665899940766,1,3,1,364,78
6200,0,1.2878708000062,2,2,3,365,78
6200,1,0.578430199995637,1,3,1,366,78
6200,1,0.593725199927576,3,1,3,367,78
6200,1,0.416124599985778,3,2,3,368,78
6200,1,0.701695700059645,2,5,2,369,78
6200,1,0.759722299990244,3,1,3,370,78
6200,1,0.959411000018008,1,4,1,371,78
6200,1,1.19992330006789,2,6,2,372,78
6200,1,1.15779910003766,1,4,1,373,78
6200,1,0.717693399987184,2,5,2,374,78
6200,1,0.654834799934179,1,3,1,375,78
6200,1,0.643235800089315,3,1,3,376,78
6200,1,0.503338700043969,3,1,3,377,78
6200,1,0.881774800014682,2,6,2,378,78
6200,1,0.716588399955072,3,2,3,379,78
6200,1,0.589870700030588,1,3,1,380,78
6200,1,0.612116700038314,2,6,2,381,78
6200,1,0.666119599947706,2,5,2,382,78
6200,1,0.629777999944054,3,2,3,383,78
6200,1,0.667077800026163,1,4,1,384,78
6200,1,0.790225800010376,1,4,1,385,78
6200,1,0.580744599923491,3,1,3,386,78
6200,1,0.771596999955364,3,2,3,387,78
6200,1,0.923054000013508,2,6,2,388,78
6200,1,0.780110099934973,3,2,3,389,78
6200,1,0.819088199990802,1,3,1,390,78
6200,0,0.527749599888921,2,1,1,391,78
6200,0,0.616707000066526,3,2,1,392,78
6200,1,1.24648430000525,2,3,2,393,78
6200,1,0.962286600028165,2,4,2,394,78
6200,1,1.49045879999176,3,5,3,395,78
6200,1,0.3811907999916,3,6,3,396,78
6200,1,0.355698899948038,1,1,1,397,78
6200,0,0.251770399976522,1,5,3,398,78
6200,1,1.01561489992309,2,4,2,399,78
6200,1,0.948970500030555,2,3,2,400,78
6200,1,0.797119299997576,1,2,1,401,78
6200,1,1.00312499993015,2,3,2,402,78
6200,1,0.417106400011107,2,4,2,403,78
6200,1,0.726106700021774,3,6,3,404,78
6200,1,0.503448000061326,3,6,3,405,78
6200,1,0.62556799990125,1,2,1,406,78
6200,1,1.01493070006836,1,1,1,407,78
6200,1,0.316468399949372,3,5,3,408,78
6200,1,0.605556900030933,1,1,1,409,78
6200,1,0.435743800015189,1,2,1,410,78
6200,1,0.68037119996734,2,3,2,411,78
6200,1,0.539024599944241,2,4,2,412,78
6200,1,0.475785300019197,3,5,3,413,78
6200,1,0.327193800010718,3,6,3,414,78
6200,1,0.672537700040266,1,2,1,415,78
6200,1,0.787829500040971,3,5,3,416,78
6200,-1,-1,-1,3,2,417,78
6200,1,0.716291100019589,3,6,3,418,78
6200,1,0.669657599995844,2,4,2,419,78
6200,1,0.47296289994847,1,1,1,420,78
6200,1,0.860310100018978,2,4,2,421,78
6200,1,0.50446920003742,2,4,2,422,78
6200,1,0.498319700011052,1,2,1,423,78
6200,0,0.964197799912654,1,6,3,424,78
6200,1,0.635732099995948,3,5,3,425,78
6200,0,1.04052140004933,1,3,2,426,78
6200,1,0.693203400005586,1,1,1,427,78
6200,1,0.647840699995868,3,6,3,428,78
6200,1,0.595719399978407,2,3,2,429,78
6200,1,0.498124400037341,3,5,3,430,78
6200,1,0.75652799999807,1,2,1,431,78
6200,1,0.652628199895844,2,4,2,432,78
6200,1,0.608147399965674,1,2,1,433,78
6200,1,0.846432799939066,1,1,1,434,78
6200,1,0.666879200027324,1,1,1,435,78
6200,1,0.678312700008973,3,5,3,436,78
6200,1,0.753821899998002,2,3,2,437,78
6200,1,1.15386779990513,3,6,3,438,78
6200,1,0.554004400037229,3,6,3,439,78
6200,1,1.01779270009138,3,5,3,440,78
6200,1,0.65508850000333,2,4,2,441,78
6200,0,0.75465959997382,3,3,2,442,78
6200,1,0.562703199917451,1,2,1,443,78
6200,1,1.11522720009089,2,3,2,444,78
6200,1,0.796093399985693,1,1,1,445,78
6200,1,0.546806200058199,1,2,1,446,78
6200,1,0.562792200013064,3,5,3,447,78
6200,1,0.87516409996897,1,1,1,448,78
6200,1,0.598698399960995,2,4,2,449,78
6200,1,0.804411699995399,3,6,3,450,78
6200,1,0.954077400034294,2,4,2,451,78
6200,1,0.610333199962042,3,5,3,452,78
6200,1,0.568523299996741,2,3,2,453,78
6200,1,0.655469699995592,1,1,1,454,78
6200,1,0.555731500033289,1,1,1,455,78
6200,1,0.595772800035775,3,6,3,456,78
6200,1,0.546054700040258,1,2,1,457,78
6200,1,0.675021599978209,2,3,2,458,78
6200,1,0.726588000077754,3,6,3,459,78
6200,1,0.711863200063817,3,5,3,460,78
6200,1,0.585743200033903,1,2,1,461,78
6200,1,1.08816150005441,2,4,2,462,78
6200,1,1.28318009991199,2,4,2,463,78
6200,1,0.98968340002466,1,1,1,464,78
6200,1,1.23644889995921,1,2,1,465,78
6200,0,1.22526980005205,2,6,3,466,78
6200,1,0.982271399931051,1,2,1,467,78
6200,0,1.06917130004149,3,3,2,468,78
6200,0,0.723384999902919,2,1,1,469,39
6200,0,0.365010999958031,2,2,3,470,39
6200,0,0.356531800003722,2,3,3,471,39
6200,1,0.612132600042969,3,3,3,472,39
6200,0,0.554141100030392,3,1,1,473,39
6200,1,0.594338100054301,3,3,3,474,39
6200,1,0.544884099974297,3,2,3,475,39
6200,1,0.521706099971198,1,1,1,476,39
6200,1,0.403256900026463,3,2,3,477,39
6200,0,0.408950200071558,3,1,1,478,39
6200,1,0.615041099954396,3,2,3,479,39
6200,1,0.460709900013171,3,3,3,480,39
6200,1,0.768266999977641,3,3,3,481,39
6200,0,1.18390510010067,1,2,3,482,39
6200,1,0.558489999966696,1,1,1,483,39
6200,1,0.430231200065464,3,2,3,484,39
6200,1,0.610905900015496,3,3,3,485,39
6200,1,0.897213299991563,1,1,1,486,39
6200,1,0.41897949995473,3,3,3,487,39
6200,1,0.472123599960469,3,2,3,488,39
6200,1,0.451887000002898,1,1,1,489,39
6200,1,0.495539900031872,1,1,1,490,39
6200,1,0.593803700059652,3,3,3,491,39
6200,0,0.408962999936193,3,1,1,492,39
6200,1,0.326921200030483,3,2,3,493,39
6200,1,0.648355200071819,3,2,3,494,39
6200,0,0.532553600030951,1,3,3,495,39
6200,1,0.597094499971718,3,2,3,496,39
6200,1,0.643158599967137,1,1,1,497,39
6200,1,0.527600200031884,3,3,3,498,39
6200,1,0.457141099963337,3,3,3,499,39
6200,1,0.517165600089356,3,2,3,500,39
6200,1,0.430626100045629,3,3,3,501,39
6200,1,1.05115010007285,1,1,1,502,39
6200,1,0.487091000075452,3,2,3,503,39
6200,1,1.03402860008646,1,1,1,504,39
6200,1,0.878467400092632,1,1,1,505,39
6200,1,0.905458899913356,3,3,3,506,39
6200,1,0.635570700047538,3,2,3,507,39
6200,1,1.21908030007035,2,1,2,508,39
6200,0,0.544171200017445,3,2,2,509,39
6200,0,0.593225899967365,3,3,1,510,39
6200,0,0.59158899995964,2,3,1,511,39
6200,1,0.91052680008579,2,1,2,512,39
6200,1,0.960565699962899,1,3,1,513,39
6200,0,0.56833939999342,1,2,2,514,39
6200,1,0.495528399944305,2,1,2,515,39
6200,1,0.466455599991605,2,2,2,516,39
6200,1,0.581950800027698,2,1,2,517,39
6200,1,0.532210999983363,2,2,2,518,39
6200,1,0.373260300024413,1,3,1,519,39
6200,1,0.428541000001132,1,3,1,520,39
6200,1,0.497848400031216,2,2,2,521,39
6200,1,0.4998784000054,2,1,2,522,39
6200,1,0.445610600057989,2,2,2,523,39
6200,1,0.706153000006452,1,3,1,524,39
6200,1,0.436432500020601,2,1,2,525,39
6200,1,0.824388999957591,1,3,1,526,39
6200,1,0.470664600026794,2,2,2,527,39
6200,1,0.625639099976979,2,1,2,528,39
6200,1,0.519052800023928,2,1,2,529,39
6200,1,0.600300100049935,1,3,1,530,39
6200,1,0.526561600039713,2,1,2,531,39
6200,1,0.591580900014378,2,2,2,532,39
6200,1,0.526564299943857,2,2,2,533,39
6200,1,0.66397540003527,1,3,1,534,39
6200,1,0.579065899946727,2,2,2,535,39
6200,1,0.850231899996288,2,1,2,536,39
6200,1,1.00637129996903,1,3,1,537,39
6200,1,0.668149400036782,1,3,1,538,39
6200,1,0.583762799971737,2,2,2,539,39
6200,1,0.574351300019771,1,3,1,540,39
6200,1,0.653814299963415,2,1,2,541,39
6200,1,0.641517300042324,2,2,2,542,39
6200,1,0.526556700002402,2,1,2,543,39
6200,1,0.495691900025122,2,1,2,544,39
6200,1,0.506536799948663,1,3,1,545,39
6200,1,0.580470400047489,2,2,2,546,39
6200,1,0.685614899965003,2,1,2,547,78
6200,1,0.872495700023137,2,2,2,548,78
6200,1,0.55559679993894,3,3,3,549,78
6200,1,0.715758900041692,3,4,3,550,78
6200,1,0.316780699999072,1,5,1,551,78
6200,1,0.406380000058562,1,6,1,552,78
6200,1,0.604150200029835,2,1,2,553,78
6200,1,0.802360799978487,1,5,1,554,78
6200,1,1.22421550005674,3,4,3,555,78
6200,1,0.829807900008745,3,3,3,556,78
6200,1,0.723164700088091,2,2,2,557,78
6200,1,0.908472100039944,3,3,3,558,78
6200,1,0.598199800006114,3,4,3,559,78
6200,1,0.668376300018281,1,6,1,560,78
6200,1,0.551725600031205,1,6,1,561,78
6200,1,0.967921899980865,2,2,2,562,78
6200,1,0.591161899967119,2,1,2,563,78
6200,0,1.13370319991373,3,5,1,564,78
6200,1,1.16658229997847,2,1,2,565,78
6200,1,0.581733099999838,2,2,2,566,78
6200,1,1.10841159999836,3,3,3,567,78
6200,1,0.438169199973345,3,4,3,568,78
6200,1,0.50678880000487,1,5,1,569,78
6200,1,0.40508670010604,1,6,1,570,78
6200,1,0.818903500097804,2,2,2,571,78
6200,1,0.60848670010455,1,5,1,572,78
6200,1,0.902517299982719,3,3,3,573,78
6200,1,0.70418250001967,1,6,1,574,78
6200,1,0.51440610003192,3,4,3,575,78
6200,1,0.675769400084391,2,1,2,576,78
6200,1,0.679249000037089,3,4,3,577,78
6200,1,0.634099200018682,3,4,3,578,78
6200,1,0.599187599960715,2,2,2,579,78
6200,1,0.797237699967809,1,6,1,580,78
6200,1,0.547062499914318,1,5,1,581,78
6200,1,0.835071300039999,3,3,3,582,78
6200,1,0.567461799946614,2,1,2,583,78
6200,1,0.655260300030932,1,6,1,584,78
6200,1,1.08326979994308,3,3,3,585,78
6200,1,0.598084999946877,1,5,1,586,78
6200,1,0.899367000092752,2,2,2,587,78
6200,1,0.653724499978125,3,4,3,588,78
6200,0,1.05787229991984,3,2,2,589,78
6200,1,0.717876599985175,2,1,2,590,78
6200,1,0.943206900032237,2,1,2,591,78
6200,1,0.688041499932297,1,5,1,592,78
6200,0,0.96249910001643,1,3,3,593,78
6200,1,0.714504699921235,1,6,1,594,78
6200,1,0.907774699968286,1,6,1,595,78
6200,0,0.773793200030923,2,5,1,596,78
6200,1,0.596929399995133,3,4,3,597,78
6200,0,1.0351881000679,1,3,3,598,78
6200,1,0.999807600048371,2,2,2,599,78
6200,1,0.973724500043318,3,3,3,600,78
6200,1,0.677211200003512,2,1,2,601,78
6200,0,0.784088599961251,3,2,2,602,78
6200,1,0.607293499982916,1,5,1,603,78
6200,1,1.02906159998383,2,1,2,604,78
6200,1,0.634420100017451,3,4,3,605,78
6200,1,0.854933499940671,1,6,1,606,78
6200,1,0.571245899889618,3,4,3,607,78
6200,1,0.578830600017682,1,5,1,608,78
6200,1,1.00986079999711,3,3,3,609,78
6200,1,0.639866999932565,2,1,2,610,78
6200,1,0.468388699926436,2,1,2,611,78
6200,1,0.743805699981749,1,6,1,612,78
6200,1,0.680171499960124,2,2,2,613,78
6200,1,1.02694879996125,3,3,3,614,78
6200,1,0.648370300070383,1,6,1,615,78
6200,1,0.72418620006647,1,5,1,616,78
6200,1,0.669911799952388,2,2,2,617,78
6200,1,0.585088299936615,3,4,3,618,78
6200,1,0.743938399944454,3,4,3,619,78
6200,1,0.752167400089093,2,1,2,620,78
6200,1,1.41670569998678,2,2,2,621,78
6200,1,0.573868300067261,1,6,1,622,78
6200,1,0.87703319999855,2,2,2,623,78
6200,1,0.80046980001498,3,3,3,624,78
6200,0,0.725147400051355,2,1,3,625,39
6200,1,0.622493300004862,2,2,2,626,39
6200,1,0.939442800008692,3,3,3,627,39
6200,1,0.564626100007445,3,3,3,628,39
6200,0,0.755722500034608,2,1,3,629,39
6200,1,1.01150890009012,3,3,3,630,39
6200,1,0.609940299997106,2,2,2,631,39
6200,0,0.415849300101399,1,1,3,632,39
6200,1,0.821388599928468,2,2,2,633,39
6200,1,0.322566399932839,3,1,3,634,39
6200,1,0.603489500004798,2,2,2,635,39
6200,1,0.569897700101137,3,3,3,636,39
6200,1,0.569393599987961,3,3,3,637,39
6200,1,0.544181999983266,2,2,2,638,39
6200,1,0.569122900022194,3,1,3,639,39
6200,1,0.496418499969877,2,2,2,640,39
6200,1,0.515167299890891,3,3,3,641,39
6200,1,1.06053949997295,3,1,3,642,39
6200,1,0.736447500064969,3,3,3,643,39
6200,1,0.64918549999129,2,2,2,644,39
6200,1,0.725283499923535,3,1,3,645,39
6200,1,0.806152899982408,3,1,3,646,39
6200,1,0.540464700083248,3,3,3,647,39
6200,1,0.589206399978139,3,1,3,648,39
6200,1,0.923853100044653,2,2,2,649,39
6200,0,0.605101799941622,3,2,2,650,39
6200,1,0.61122299998533,3,3,3,651,39
6200,0,0.705363600049168,3,2,2,652,39
6200,1,0.531413299962878,3,1,3,653,39
6200,1,0.371784099959768,3,3,3,654,39
6200,1,0.547143399948254,3,3,3,655,39
6200,0,0.411269500036724,3,2,2,656,39
6200,1,0.577090500039048,3,3,3,657,39
6200,1,0.568190800026059,3,1,3,658,39
6200,0,0.655514299985953,3,2,2,659,39
6200,1,0.387480600038543,3,1,3,660,39
6200,1,0.56242229999043,3,1,3,661,39
6200,0,0.466193800093606,2,3,3,662,39
6200,1,0.29389099997934,2,2,2,663,39
6200,0,1.16911810007878,2,1,3,664,78
6200,0,0.672391000087373,2,2,3,665,78
6200,0,0.347715500043705,2,3,1,666,78
6200,0,0.596001600031741,2,4,1,667,78
6200,1,0.51453120005317,2,5,2,668,78
6200,1,0.56394410005305,2,6,2,669,78
6200,1,0.651226699934341,3,1,3,670,78
6200,0,0.615290299989283,3,5,2,671,78
6200,0,0.628491600044072,3,4,1,672,78
6200,0,0.55408809997607,3,3,1,673,78
6200,1,0.641791700036265,3,2,3,674,78
6200,1,0.66240139992442,1,3,1,675,78
6200,1,0.946553500019945,1,4,1,676,78
6200,1,0.875248300028034,2,6,2,677,78
6200,1,0.614551099948585,2,6,2,678,78
6200,1,0.651508700102568,3,2,3,679,78
6200,1,0.528040000004694,3,1,3,680,78
6200,0,0.720941399922594,1,5,2,681,78
6200,0,0.578509000013582,1,1,3,682,78
6200,1,0.649822499952279,3,2,3,683,78
6200,0,0.653803900000639,3,3,1,684,78
6200,1,0.729784999974072,1,4,1,685,78
6200,0,0.691308900015429,1,5,2,686,78
6200,0,0.381931799929589,3,6,2,687,78
6200,1,1.18049619998783,3,2,3,688,78
6200,0,0.714983699959703,3,5,2,689,78
6200,1,0.59632909996435,1,3,1,690,78
6200,1,0.819331699982285,2,6,2,691,78
6200,1,0.768507099943236,1,4,1,692,78
6200,1,0.623885000008158,3,1,3,693,78
6200,1,0.85314689995721,1,4,1,694,78
6200,1,0.568923999904655,1,4,1,695,78
6200,1,0.624134399928153,3,2,3,696,78
6200,1,0.725852399948053,2,6,2,697,78
6200,0,0.711300300084986,1,5,2,698,78
6200,1,0.585396899958141,1,3,1,699,78
6200,0,0.983584300032817,2,1,3,700,78
6200,1,0.678496600012295,2,6,2,701,78
6200,1,0.62590900005307,1,3,1,702,78
6200,0,0.791275399969891,1,5,2,703,78
6200,0,0.749953699996695,2,2,3,704,78
6200,0,0.453943900065497,2,4,1,705,78
6200,0,0.649716299958527,2,2,3,706,78
6200,1,0.861930699902587,3,1,3,707,78
6200,1,0.617908100015484,3,1,3,708,78
6200,0,0.774975599953905,1,5,2,709,78
6200,0,0.766327799996361,3,3,1,710,78
6200,1,0.749529400025494,2,6,2,711,78
6200,1,0.413632099982351,2,6,2,712,78
6200,1,1.25112749997061,2,5,2,713,78
6200,0,0.678897400037386,3,4,1,714,78
6200,1,0.882417000015266,1,3,1,715,78
6200,1,0.468896799953654,3,2,3,716,78
6200,1,0.728324600029737,1,3,1,717,78
6200,1,0.937775099999271,3,1,3,718,78
6200,0,0.866498599993065,1,2,3,719,78
6200,1,0.597817600006238,2,5,2,720,78
6200,1,0.739757300005294,3,1,3,721,78
6200,0,1.12426319997758,2,4,1,722,78
6200,1,0.749895600019954,2,6,2,723,78
6200,0,1.47801710001659,2,4,1,724,78
6200,0,0.960909600020386,3,5,2,725,78
6200,1,1.02511990000494,1,3,1,726,78
6200,1,0.758581100031734,3,1,3,727,78
6200,1,0.45461160002742,3,1,3,728,78
6200,1,0.642546800081618,2,6,2,729,78
6200,0,0.871005300083198,2,2,3,730,78
6200,-1,-1,-1,3,1,731,78
6200,1,0.564222900080495,2,6,2,732,78
6200,1,0.995897899963893,2,5,2,733,78
6200,0,1.08216210000683,1,2,3,734,78
6200,0,1.27701960003469,3,4,1,735,78
6200,0,0.848692400031723,3,4,1,736,78
6200,1,0.708521499997005,3,1,3,737,78
6200,1,1.4226155000506,3,2,3,738,78
6200,1,0.651685599936172,2,6,2,739,78
6200,0,0.487628999981098,2,2,3,740,78
6200,1,1.0266364000272,1,3,1,741,78
6200,1,0.390635900082998,2,1,2,742,39
6200,0,0.493230100022629,2,2,1,743,39
6200,0,0.60788250004407,3,3,1,744,39
6200,0,0.533871100051329,2,3,1,745,39
6200,1,0.702374299988151,2,1,2,746,39
6200,1,0.288540800102055,1,3,1,747,39
6200,1,0.347123599960469,1,2,1,748,39
6200,1,0.419010099954903,2,1,2,749,39
6200,1,0.448454800061882,1,2,1,750,39
6200,1,0.452273300033994,2,1,2,751,39
6200,1,0.60061860003043,1,2,1,752,39
6200,1,0.390251800068654,1,3,1,753,39
6200,1,0.49326470005326,1,3,1,754,39
6200,1,0.687727900105529,1,2,1,755,39
6200,1,0.458491199999116,2,1,2,756,39
6200,1,0.398943200008944,1,2,1,757,39
6200,1,0.476285799988545,1,3,1,758,39
6200,1,0.471528900088742,2,1,2,759,39
6200,1,0.595295800012536,1,3,1,760,39
6200,1,0.937934199930169,1,2,1,761,39
6200,1,0.578563299961388,2,1,2,762,39
6200,0,1.01791230007075,1,1,2,763,39
6200,1,0.983318199985661,1,3,1,764,39
6200,1,0.798034199979156,2,1,2,765,39
6200,1,0.579885300016031,1,2,1,766,39
6200,1,0.642231700010598,1,2,1,767,39
6200,1,0.686868200078607,1,3,1,768,39
6200,1,0.47375990008004,1,2,1,769,39
6200,1,0.741370000061579,2,1,2,770,39
6200,1,0.573722400004044,1,3,1,771,39
6200,1,0.709396799909882,1,3,1,772,39
6200,1,0.471040299977176,1,2,1,773,39
6200,1,0.434505200013518,1,3,1,774,39
6200,1,0.71138350002002,2,1,2,775,39
6200,1,1.0011961000273,1,2,1,776,39
6200,1,0.783227099920623,2,1,2,777,39
6200,1,0.549994700006209,2,1,2,778,39
6200,1,0.517882499960251,1,3,1,779,39
6200,1,0.391362699912861,1,2,1,780,39
6201,0,0.619802400004119,2,1,1,1,39
6201,-1,-1,-1,2,2,2,39
6201,1,0.667477000039071,2,3,2,3,39
6201,1,0.654893100028858,2,3,2,4,39
6201,0,0.690348400035873,3,1,1,5,39
6201,1,0.629420999903232,2,3,2,6,39
6201,0,0.746643099933863,1,2,2,7,39
6201,-1,-1,-1,1,1,8,39
6201,0,0.580364699941128,3,2,2,9,39
6201,0,0.668323799967766,2,1,1,10,39
6201,1,0.790822500013746,2,2,2,11,39
6201,1,0.733461600029841,2,3,2,12,39
6201,1,0.485854000085965,2,3,2,13,39
6201,1,0.384794799960218,2,2,2,14,39
6201,0,0.495211700093932,3,1,1,15,39
6201,1,0.481967500061728,2,2,2,16,39
6201,1,0.460461499984376,2,3,2,17,39
6201,1,0.48038980003912,1,1,1,18,39
6201,1,0.731086599989794,1,1,1,19,39
6201,1,0.468110600020736,2,2,2,20,39
6201,1,0.591439899988472,2,3,2,21,39
6201,1,0.78986330004409,2,2,2,22,39
6201,1,0.452698300010525,2,3,2,23,39
6201,1,0.560518399928696,1,1,1,24,39
6201,0,0.384770400007255,2,1,1,25,39
6201,1,0.535190600086935,2,3,2,26,39
6201,1,0.560134300030768,2,2,2,27,39
6201,1,0.375786500051618,2,2,2,28,39
6201,1,0.343601100030355,2,3,2,29,39
6201,1,0.48818260000553,1,1,1,30,39
6201,1,0.482522899983451,2,3,2,31,39
6201,1,0.253562700003386,2,2,2,32,39
6201,1,0.537352400016971,1,1,1,33,39
6201,1,0.426083699916489,2,2,2,34,39
6201,1,0.647537400014699,2,3,2,35,39
6201,1,0.411689499975182,2,3,2,36,39
6201,1,0.537459600018337,1,1,1,37,39
6201,1,0.666223000036553,1,1,1,38,39
6201,1,0.517600900027901,2,2,2,39,39
6201,0,0.7608127000276,2,1,1,40,78
6201,0,0.528137400047854,2,2,1,41,78
6201,1,0.466191000072286,2,3,2,42,78
6201,0,0.653390499996021,3,4,2,43,78
6201,0,0.593043599976227,1,5,3,44,78
6201,0,0.679918200010434,1,6,3,45,78
6201,0,1.19510049989913,3,4,2,46,78
6201,0,0.858101000078022,2,6,3,47,78
6201,0,0.901881699915975,2,2,1,48,78
6201,1,1.44022640003823,1,1,1,49,78
6201,1,1.28474489995278,3,5,3,50,78
6201,-1,-1,-1,4,2,51,78
6201,1,0.849418300087564,2,3,2,52,78
6201,1,0.717597600072622,1,1,1,53,78
6201,1,1.09448460000567,3,6,3,54,78
6201,1,0.737549299956299,3,6,3,55,78
6201,1,0.978161599952728,1,2,1,56,78
6201,1,1.11358570004813,2,3,2,57,78
6201,1,0.698736099991947,1,1,1,58,78
6201,0,1.04475410003215,3,2,1,59,78
6201,1,0.769465199904516,2,3,2,60,78
6201,1,0.792534400010481,2,4,2,61,78
6201,1,1.15145999996457,3,5,3,62,78
6201,1,0.495359300053678,3,6,3,63,78
6201,1,0.458215299993753,1,2,1,64,78
6201,1,0.806050500017591,3,5,3,65,78
6201,1,0.580168600077741,1,1,1,66,78
6201,1,0.77867609995883,2,3,2,67,78
6201,1,0.793904699967243,3,6,3,68,78
6201,1,1.36083460005466,3,5,3,69,78
6201,1,0.752509400015697,2,4,2,70,78
6201,1,0.504588600015268,2,4,2,71,78
6201,1,0.618777099996805,1,1,1,72,78
6201,1,0.631830800091848,2,3,2,73,78
6201,1,0.628456300008111,1,2,1,74,78
6201,1,0.794113400042988,2,3,2,75,78
6201,1,0.600501299952157,3,6,3,76,78
6201,1,0.502378400065936,3,6,3,77,78
6201,1,0.824550700024702,3,5,3,78,78
6201,1,0.60613500000909,1,1,1,79,78
6201,1,1.0842655999586,3,5,3,80,78
6201,1,0.798915499937721,2,4,2,81,78
6201,1,0.764700000057928,1,1,1,82,78
6201,1,0.83603560004849,1,2,1,83,78
6201,1,0.62474709993694,3,5,3,84,78
6201,0,0.726134500000626,3,2,1,85,78
6201,1,0.615204999921843,2,3,2,86,78
6201,1,0.612622999935411,3,6,3,87,78
6201,1,0.714582799933851,2,4,2,88,78
6201,1,0.627902299980633,2,3,2,89,78
6201,1,0.83368080004584,1,2,1,90,78
6201,1,0.605705699999817,3,6,3,91,78
6201,1,0.595488099963404,3,5,3,92,78
6201,1,0.562226300011389,1,1,1,93,78
6201,1,0.586208699969575,2,4,2,94,78
6201,1,0.4407597000245,2,4,2,95,78
6201,1,0.757143500028178,3,6,3,96,78
6201,1,0.653434500098228,2,3,2,97,78
6201,1,0.473476499901153,2,3,2,98,78
6201,1,0.700751599972136,1,2,1,99,78
6201,1,0.454888599924743,1,1,1,100,78
6201,1,0.610936900018714,1,2,1,101,78
6201,1,0.592569000087678,3,6,3,102,78
6201,1,0.503444300033152,3,5,3,103,78
6201,1,0.681427199975587,1,1,1,104,78
6201,1,0.57230110000819,2,4,2,105,78
6201,1,0.683110299985856,3,5,3,106,78
6201,1,0.685887600062415,2,4,2,107,78
6201,1,0.568410499952734,1,1,1,108,78
6201,1,0.520138899912126,2,3,2,109,78
6201,1,0.577554399962537,3,6,3,110,78
6201,1,0.552452200092375,1,2,1,111,78
6201,1,0.472408400033601,1,2,1,112,78
6201,1,0.443870200077072,1,1,1,113,78
6201,1,0.945497800013982,2,4,2,114,78
6201,1,0.497578400070779,3,5,3,115,78
6201,1,0.53953339997679,3,6,3,116,78
6201,1,0.507928999955766,2,4,2,117,78
6201,1,0.800852600019425,1,1,1,118,39
6201,0,0.878804999985732,2,2,3,119,39
6201,1,0.553821299923584,3,3,3,120,39
6201,1,0.833750499994494,3,3,3,121,39
6201,1,0.894763600081205,1,1,1,122,39
6201,1,0.545565599924885,3,3,3,123,39
6201,1,0.898110899957828,3,2,3,124,39
6201,1,0.723769100033678,1,1,1,125,39
6201,1,0.677525900071487,3,2,3,126,39
6201,1,0.544851199956611,1,1,1,127,39
6201,1,0.473200799897313,3,2,3,128,39
6201,1,0.532731699990109,3,3,3,129,39
6201,1,0.501585999969393,3,3,3,130,39
6201,1,0.679496999946423,3,2,3,131,39
6201,1,0.450788800022565,1,1,1,132,39
6201,1,0.462741900002584,3,2,3,133,39
6201,1,0.394488699967042,3,3,3,134,39
6201,1,0.617471599951386,1,1,1,135,39
6201,1,0.566523100016639,1,1,1,136,39
6201,1,0.405862499959767,3,2,3,137,39
6201,1,0.41225769999437,3,3,3,138,39
6201,1,0.785812600050122,3,2,3,139,39
6201,1,0.496577900019474,3,3,3,140,39
6201,1,0.538778300047852,1,1,1,141,39
6201,1,0.587551399949007,1,1,1,142,39
6201,1,0.425902000046335,3,3,3,143,39
6201,1,0.455407300032675,3,2,3,144,39
6201,1,0.491227900027297,3,2,3,145,39
6201,1,0.590087899938226,3,3,3,146,39
6201,1,0.452384799951687,1,1,1,147,39
6201,1,0.56882859999314,3,3,3,148,39
6201,1,0.575745000038296,3,2,3,149,39
6201,1,0.463251700042747,1,1,1,150,39
6201,1,1.14691350003704,3,2,3,151,39
6201,1,0.602805899921805,3,3,3,152,39
6201,1,0.41683469992131,3,3,3,153,39
6201,0,0.405751600046642,3,1,1,154,39
6201,1,0.563920499989763,1,1,1,155,39
6201,1,0.459493100061081,3,2,3,156,39
6201,0,0.598870799993165,3,1,2,157,39
6201,1,0.40478619991336,2,2,2,158,39
6201,1,0.530939000076614,1,3,1,159,39
6201,1,0.779412099975161,1,3,1,160,39
6201,0,0.730781999998726,1,1,2,161,39
6201,1,0.707430600072257,1,3,1,162,39
6201,1,0.549096600036137,2,2,2,163,39
6201,1,0.453238100046292,2,1,2,164,39
6201,-1,-1,-1,2,2,165,39
6201,1,0.563102799933404,2,1,2,166,39
6201,1,0.3787892999826,2,2,2,167,39
6201,1,0.458176900050603,1,3,1,168,39
6201,1,0.582177400006913,1,3,1,169,39
6201,1,0.444949200027622,2,2,2,170,39
6201,1,0.953552999999374,2,1,2,171,39
6201,1,0.393488500034437,2,2,2,172,39
6201,1,0.519820199930109,1,3,1,173,39
6201,1,0.401322799967602,2,1,2,174,39
6201,1,0.719274499919266,2,1,2,175,39
6201,1,0.360868499963544,2,2,2,176,39
6201,1,0.464611399918795,1,3,1,177,39
6201,1,0.372115799924359,2,2,2,178,39
6201,1,0.555540299974382,1,3,1,179,39
6201,1,0.339101599995047,2,1,2,180,39
6201,1,0.340185600100085,2,1,2,181,39
6201,1,0.548945299931802,1,3,1,182,39
6201,1,0.388602700084448,2,2,2,183,39
6201,1,0.275246300036088,2,2,2,184,39
6201,1,0.574558699969202,1,3,1,185,39
6201,1,0.486248899949715,2,1,2,186,39
6201,0,0.400692699942738,2,3,1,187,39
6201,1,0.350519399973564,2,2,2,188,39
6201,1,0.502511500031687,2,1,2,189,39
6201,1,0.496790000004694,2,2,2,190,39
6201,1,0.634831900009885,1,3,1,191,39
6201,1,0.559459000010975,1,3,1,192,39
6201,1,0.463280000025406,2,1,2,193,39
6201,1,0.41849990002811,2,1,2,194,39
6201,1,0.54421890003141,2,2,2,195,39
6201,1,0.780562600004487,2,1,2,196,78
6201,0,0.627418399904855,1,2,2,197,78
6201,0,0.720543700037524,2,3,3,198,78
6201,1,0.609944400028326,3,4,3,199,78
6201,0,1.34387710003648,2,5,1,200,78
6201,0,0.560791600029916,3,6,1,201,78
6201,0,0.680765300057828,1,4,3,202,78
6201,-1,-1,-1,6,1,203,78
6201,1,0.54146989993751,2,2,2,204,78
6201,1,0.77409980003722,2,1,2,205,78
6201,0,0.837110499967821,3,5,1,206,78
6201,0,0.76216459996067,1,4,3,207,78
6201,1,1.23378060001414,3,3,3,208,78
6201,1,0.630712899961509,2,1,2,209,78
6201,0,1.01152619998902,2,6,1,210,78
6201,1,0.777835500077344,1,6,1,211,78
6201,-1,-1,-1,2,2,212,78
6201,0,0.890594700002111,2,3,3,213,78
6201,1,0.445613699965179,2,1,2,214,78
6201,1,0.714247399941087,2,2,2,215,78
6201,1,0.48311049991753,3,3,3,216,78
6201,0,1.12624659994617,1,4,3,217,78
6201,0,0.999508799985051,3,5,1,218,78
6201,1,0.861499799997546,1,6,1,219,78
6201,1,0.657236799946986,2,2,2,220,78
6201,1,0.965540700010024,1,5,1,221,78
6201,1,0.564671600004658,2,1,2,222,78
6201,1,0.764132299926132,3,3,3,223,78
6201,1,0.835523899993859,1,6,1,224,78
6201,1,0.808113400009461,1,5,1,225,78
6201,1,0.430150300031528,3,4,3,226,78
6201,1,0.634489699965343,3,4,3,227,78
6201,1,0.599576000007801,2,1,2,228,78
6201,1,0.76525119994767,3,3,3,229,78
6201,1,0.852610499947332,2,2,2,230,78
6201,1,0.920545800006948,3,3,3,231,78
6201,1,0.61824920005165,1,6,1,232,78
6201,1,0.599200699944049,1,6,1,233,78
6201,1,0.749475899967365,1,5,1,234,78
6201,1,0.717564200051129,2,1,2,235,78
6201,1,0.75882820005063,1,5,1,236,78
6201,1,0.670458599925041,3,4,3,237,78
6201,1,0.786161200026982,2,1,2,238,78
6201,1,0.473026399966329,2,2,2,239,78
6201,1,0.764180400059558,1,5,1,240,78
6201,1,0.675202799960971,2,2,2,241,78
6201,1,1.27857429999858,3,3,3,242,78
6201,1,0.522175599937327,1,6,1,243,78
6201,1,0.651234499993734,3,4,3,244,78
6201,1,0.983509799931198,3,3,3,245,78
6201,1,0.598220699932426,2,2,2,246,78
6201,1,1.46824439999182,1,6,1,247,78
6201,1,0.759405300021172,1,5,1,248,78
6201,1,0.599663600092754,2,1,2,249,78
6201,1,0.509179000044242,3,4,3,250,78
6201,1,0.519282600027509,3,4,3,251,78
6201,1,0.768580200034194,1,6,1,252,78
6201,1,1.07219019997865,3,3,3,253,78
6201,1,0.419180799974129,3,3,3,254,78
6201,1,0.80081559997052,2,2,2,255,78
6201,1,0.4147299999604,2,1,2,256,78
6201,1,0.524268499924801,2,2,2,257,78
6201,1,0.653510400094092,1,6,1,258,78
6201,1,0.86524209997151,1,5,1,259,78
6201,1,0.589038299978711,2,1,2,260,78
6201,1,0.563290400081314,3,4,3,261,78
6201,1,0.87493299995549,1,5,1,262,78
6201,1,0.637926699942909,3,4,3,263,78
6201,1,0.634553200099617,2,1,2,264,78
6201,1,0.887223399942741,3,3,3,265,78
6201,1,0.610256499960087,1,6,1,266,78
6201,1,0.592038400005549,2,2,2,267,78
6201,1,0.43898660002742,2,2,2,268,78
6201,1,0.427641000016592,2,1,2,269,78
6201,1,0.688513499917462,3,4,3,270,78
6201,1,0.731452699983492,1,5,1,271,78
6201,1,1.04415910004172,1,6,1,272,78
6201,1,0.816881699953228,3,4,3,273,78
6201,0,0.588518799981102,1,1,3,274,39
6201,1,0.715502499951981,2,2,2,275,39
6201,1,0.620603600051254,3,3,3,276,39
6201,1,0.802156699937768,3,3,3,277,39
6201,0,0.775893199956045,2,1,3,278,39
6201,1,0.783631999976933,3,3,3,279,39
6201,1,0.662215999909677,2,2,2,280,39
6201,1,0.394242499954998,3,1,3,281,39
6201,1,1.08889200002886,2,2,2,282,39
6201,1,0.675588999991305,3,1,3,283,39
6201,1,0.534903299994767,2,2,2,284,39
6201,1,0.615506300004199,3,3,3,285,39
6201,1,0.508830700069666,3,3,3,286,39
6201,1,0.814826800022274,2,2,2,287,39
6201,1,0.339805099996738,3,1,3,288,39
6201,1,0.508496400085278,2,2,2,289,39
6201,1,0.478839699993841,3,3,3,290,39
6201,1,0.778219099971466,3,1,3,291,39
6201,1,0.521038500010036,3,1,3,292,39
6201,1,0.386472099926323,2,2,2,293,39
6201,1,0.553515700041316,3,3,3,294,39
6201,1,0.729642400052398,2,2,2,295,39
6201,1,0.458950300002471,3,3,3,296,39
6201,1,0.423044200055301,3,1,3,297,39
6201,1,0.508164099999703,3,1,3,298,39
6201,1,0.56620949995704,3,3,3,299,39
6201,1,0.565234300098382,2,2,2,300,39
6201,1,0.476564000011422,2,2,2,301,39
6201,1,0.583902399986982,3,3,3,302,39
6201,1,0.559049000032246,3,1,3,303,39
6201,1,0.534573800046928,3,3,3,304,39
6201,1,0.58335430000443,2,2,2,305,39
6201,1,0.486320500029251,3,1,3,306,39
6201,1,0.608687400002964,2,2,2,307,39
6201,1,0.375252399942838,3,3,3,308,39
6201,1,0.382188700023107,3,3,3,309,39
6201,1,0.516974600031972,3,1,3,310,39
6201,1,0.430223300005309,3,1,3,311,39
6201,1,0.6028546000598,2,2,2,312,39
6201,0,0.514598999987356,2,1,3,313,78
6201,0,0.500205399934202,2,2,3,314,78
6201,0,0.741763299913146,2,3,1,315,78
6201,0,1.00691400002688,3,4,1,316,78
6201,1,0.540713800000958,2,5,2,317,78
6201,1,0.685486200032756,2,6,2,318,78
6201,1,0.704318800009787,1,4,1,319,78
6201,1,0.921904399991035,2,6,2,320,78
6201,1,0.811149099958129,3,2,3,321,78
6201,0,1.17753770004492,1,1,3,322,78
6201,1,0.912878799950704,2,5,2,323,78
6201,0,1.06652250001207,3,4,1,324,78
6201,1,0.862401699996553,1,3,1,325,78
6201,-1,-1,-1,1,3,326,78
6201,1,0.476303000003099,2,6,2,327,78
6201,1,0.407237899955362,2,6,2,328,78
6201,0,1.21362359996419,1,2,3,329,78
6201,1,0.818933399976231,1,3,1,330,78
6201,0,1.04812940000556,1,1,3,331,78
6201,1,0.676818300038576,3,2,3,332,78
6201,1,0.775551700033247,1,3,1,333,78
6201,1,0.846628400031477,1,4,1,334,78
6201,1,0.570938999997452,2,5,2,335,78
6201,1,0.674268700066023,2,6,2,336,78
6201,1,0.725649900035933,3,2,3,337,78
6201,1,0.79087869997602,2,5,2,338,78
6201,1,0.701252400060184,3,1,3,339,78
6201,1,0.639187199994922,1,3,1,340,78
6201,1,0.683936499990523,2,6,2,341,78
6201,1,0.750612600008026,2,5,2,342,78
6201,1,0.830632700002752,1,4,1,343,78
6201,1,0.491155400057323,1,4,1,344,78
6201,1,0.637813700013794,3,1,3,345,78
6201,1,0.714963300037198,1,3,1,346,78
6201,1,0.508237599977292,3,2,3,347,78
6201,1,0.566858800011687,1,3,1,348,78
6201,1,0.645515499985777,2,6,2,349,78
6201,1,0.442330699996091,2,6,2,350,78
6201,1,0.518911199993454,2,5,2,351,78
6201,1,0.82393630000297,3,1,3,352,78
6201,1,0.653435099986382,2,5,2,353,78
6201,1,0.649601600016467,1,4,1,354,78
6201,1,0.629597100079991,3,1,3,355,78
6201,1,0.738824400003068,3,2,3,356,78
6201,1,0.45963469997514,2,5,2,357,78
6201,0,0.73568229994271,2,2,3,358,78
6201,1,0.600250200019218,1,3,1,359,78
6201,1,0.573855499969795,2,6,2,360,78
6201,1,0.645702600013465,1,4,1,361,78
6201,1,0.562351199914701,1,3,1,362,78
6201,1,0.60224100004416,3,2,3,363,78
6201,1,0.576198599999771,2,6,2,364,78
6201,1,0.567475300049409,2,5,2,365,78
6201,1,0.638526300084777,3,1,3,366,78
6201,1,0.555231799953617,1,4,1,367,78
6201,1,0.491502700024284,1,4,1,368,78
6201,1,0.526342299999669,2,6,2,369,78
6201,1,0.519334099953994,1,3,1,370,78
6201,1,0.624507500091568,1,3,1,371,78
6201,1,0.877898799953982,3,2,3,372,78
6201,1,0.473213299992494,3,1,3,373,78
6201,1,0.612891800003126,3,2,3,374,78
6201,1,0.578824999975041,2,6,2,375,78
6201,1,0.633908099960536,2,5,2,376,78
6201,0,0.542585099930875,2,1,3,377,78
6201,1,0.623510099947453,1,4,1,378,78
6201,1,0.668927200022154,2,5,2,379,78
6201,1,0.960190499899909,1,4,1,380,78
6201,1,0.640018399921246,3,1,3,381,78
6201,1,0.548600299982354,1,3,1,382,78
6201,1,0.564847199944779,2,6,2,383,78
6201,1,0.580152499955148,3,2,3,384,78
6201,1,0.482862400007434,3,2,3,385,78
6201,1,1.02122819994111,3,1,3,386,78
6201,1,0.570904399966821,1,4,1,387,78
6201,1,0.634262099978514,2,5,2,388,78
6201,1,0.542859499924816,2,6,2,389,78
6201,1,0.623155900044367,1,4,1,390,78
6201,0,0.488868899992667,3,1,1,391,78
6201,0,0.524049100000411,2,2,1,392,78
6201,0,0.420943300006911,1,3,2,393,78
6201,1,0.442174299969338,2,4,2,394,78
6201,1,0.614584000082687,3,5,3,395,78
6201,0,0.716177699971013,1,6,3,396,78
6201,1,0.965548800071701,2,4,2,397,78
6201,1,1.03719029994681,3,6,3,398,78
6201,1,1.33762910007499,1,2,1,399,78
6201,0,1.06597820005845,2,1,1,400,78
6201,1,1.0135437999852,3,5,3,401,78
6201,1,0.514783599996008,2,4,2,402,78
6201,0,0.852325299987569,1,3,2,403,78
6201,1,1.07218210003339,1,1,1,404,78
6201,0,1.17961420002393,1,6,3,405,78
6201,1,0.634682999923825,3,6,3,406,78
6201,1,1.23961789999157,1,2,1,407,78
6201,1,0.915871700039133,2,3,2,408,78
6201,1,1.26923800003715,1,1,1,409,78
6201,1,0.792970399954356,1,2,1,410,78
6201,1,0.919309899909422,2,3,2,411,78
6201,1,0.600778999971226,2,4,2,412,78
6201,1,0.61465160001535,3,5,3,413,78
6201,1,0.796269099926576,3,6,3,414,78
6201,1,0.747053000028245,1,2,1,415,78
6201,0,0.842993599944748,2,5,3,416,78
6201,1,0.671646300004795,1,1,1,417,78
6201,1,0.810683000017889,2,3,2,418,78
6201,1,0.608622099971399,3,6,3,419,78
6201,1,0.894943200051785,3,5,3,420,78
6201,1,0.641537599964067,2,4,2,421,78
6201,1,0.470327500021085,2,4,2,422,78
6201,1,0.625526900053956,1,1,1,423,78
6201,1,0.68682840000838,2,3,2,424,78
6201,1,0.666077799978666,1,2,1,425,78
6201,1,0.813051900011487,2,3,2,426,78
6201,1,0.786913799936883,3,6,3,427,78
6201,1,0.54522840003483,3,6,3,428,78
6201,1,1.0501241000602,3,5,3,429,78
6201,1,1.14204890001565,1,1,1,430,78
6201,1,0.670514299999923,3,5,3,431,78
6201,1,0.546077400096692,2,4,2,432,78
6201,1,0.690824099932797,1,1,1,433,78
6201,1,0.693616800010204,1,2,1,434,78
6201,1,0.711986600072123,3,5,3,435,78
6201,1,0.602040100027807,1,2,1,436,78
6201,1,0.552267899969593,2,3,2,437,78
6201,1,0.735992099973373,3,6,3,438,78
6201,1,0.536676799994893,2,4,2,439,78
6201,1,0.585638899938203,2,3,2,440,78
6201,1,0.615884799975902,1,2,1,441,78
6201,1,0.645580400014296,3,6,3,442,78
6201,1,1.09885509999003,3,5,3,443,78
6201,1,0.844200200052001,1,1,1,444,78
6201,1,0.568708800012246,2,4,2,445,78
6201,1,0.584067100076936,2,4,2,446,78
6201,0,0.695081599988043,2,6,3,447,78
6201,1,0.449320500018075,2,3,2,448,78
6201,1,0.509528600028716,2,3,2,449,78
6201,1,0.527326900046319,1,2,1,450,78
6201,1,0.54489019990433,1,1,1,451,78
6201,1,0.569363100104965,1,2,1,452,78
6201,1,0.57673650002107,3,6,3,453,78
6201,1,0.439937700051814,3,5,3,454,78
6201,1,0.684875199920498,1,1,1,455,78
6201,1,0.591333399992436,2,4,2,456,78
6201,1,1.19821139995474,3,5,3,457,78
6201,1,0.588297199923545,2,4,2,458,78
6201,1,0.746909099980257,1,1,1,459,78
6201,1,0.578925000037998,2,3,2,460,78
6201,1,0.753967199940234,3,6,3,461,78
6201,1,0.634264199994504,1,2,1,462,78
6201,1,0.670955699984916,1,2,1,463,78
6201,1,0.578326000017114,1,1,1,464,78
6201,1,0.497680200031027,2,4,2,465,78
6201,1,0.611690000048839,3,5,3,466,78
6201,1,0.441628299886361,3,6,3,467,78
6201,1,0.494380499934778,2,4,2,468,78
6201,1,0.638791900011711,1,1,1,469,39
6201,0,0.451321800006554,2,2,3,470,39
6201,1,0.415637199999765,3,3,3,471,39
6201,1,0.420836800010875,3,3,3,472,39
6201,1,0.74596540001221,1,1,1,473,39
6201,1,0.554564899997786,3,3,3,474,39
6201,0,0.40293990005739,1,2,3,475,39
6201,1,0.592809100053273,1,1,1,476,39
6201,1,0.511314500006847,3,2,3,477,39
6201,1,0.617087799939327,1,1,1,478,39
6201,1,0.622886699973606,3,2,3,479,39
6201,1,0.644010199932382,3,3,3,480,39
6201,1,0.504545300034806,3,3,3,481,39
6201,1,0.482538800104521,3,2,3,482,39
6201,1,0.621520200045779,1,1,1,483,39
6201,1,0.842642200062983,3,2,3,484,39
6201,1,0.407340299920179,3,3,3,485,39
6201,1,0.381526399985887,1,1,1,486,39
6201,1,0.612031200085767,1,1,1,487,39
6201,1,0.378220099955797,3,2,3,488,39
6201,1,0.58585730008781,3,3,3,489,39
6201,1,0.976251199957915,3,2,3,490,39
6201,1,0.479644800070673,3,3,3,491,39
6201,1,0.570671200053766,1,1,1,492,39
6201,1,0.690252400003374,1,1,1,493,39
6201,1,0.420855600037612,3,3,3,494,39
6201,1,0.706004899926484,3,2,3,495,39
6201,1,0.444250499946065,3,2,3,496,39
6201,1,0.416861900012009,3,3,3,497,39
6201,1,1.04629800003022,1,1,1,498,39
6201,1,0.474698200006969,3,3,3,499,39
6201,1,0.462194999912754,3,2,3,500,39
6201,1,0.537709899945185,1,1,1,501,39
6201,1,0.723630800028332,3,2,3,502,39
6201,1,0.540345400106162,3,3,3,503,39
6201,1,0.516905099968426,3,3,3,504,39
6201,1,1.04644740000367,1,1,1,505,39
6201,1,0.482896300032735,1,1,1,506,39
6201,1,0.525609600008465,3,2,3,507,39
6201,1,0.873891000053845,2,1,2,508,39
6201,0,0.581670299987309,1,2,2,509,39
6201,0,0.435939399991184,3,3,1,510,39
6201,0,0.8089186999714,2,3,1,511,39
6201,1,0.638981599942781,2,1,2,512,39
6201,1,0.899628600105643,1,3,1,513,39
6201,1,0.485574400052428,2,2,2,514,39
6201,1,0.623854400007986,2,1,2,515,39
6201,1,0.381235099979676,2,2,2,516,39
6201,1,0.660310899955221,2,1,2,517,39
6201,1,0.456417700042948,2,2,2,518,39
6201,1,0.715926199918613,1,3,1,519,39
6201,1,0.549254300072789,1,3,1,520,39
6201,1,0.493897299980745,2,2,2,521,39
6201,1,0.616270800004713,2,1,2,522,39
6201,1,0.517476000008173,2,2,2,523,39
6201,1,0.646595899946988,1,3,1,524,39
6201,1,0.571071900078095,2,1,2,525,39
6201,1,0.377923900028691,2,1,2,526,39
6201,1,0.393282700097188,2,2,2,527,39
6201,1,0.712294399971142,1,3,1,528,39
6201,1,0.362233599997126,2,2,2,529,39
6201,0,0.354319600039162,2,3,1,530,39
6201,1,0.498006299952976,2,1,2,531,39
6201,1,0.436296700034291,2,1,2,532,39
6201,1,0.616611700039357,1,3,1,533,39
6201,1,0.478238399955444,2,2,2,534,39
6201,1,0.457315500010736,2,2,2,535,39
6201,1,0.701658099889755,1,3,1,536,39
6201,1,0.855707000009716,2,1,2,537,39
6201,0,0.371328299981542,2,3,1,538,39
6201,1,0.394660599995404,2,2,2,539,39
6201,1,0.457304099923931,2,1,2,540,39
6201,1,0.525681999977678,2,2,2,541,39
6201,1,0.502956100041047,1,3,1,542,39
6201,1,0.512681599939242,1,3,1,543,39
6201,1,0.515017199912108,2,1,2,544,39
6201,1,0.628351499908604,2,1,2,545,39
6201,1,0.585364400059916,2,2,2,546,39
6201,1,0.706667799968272,2,1,2,547,78
6201,0,0.588835299946368,1,2,2,548,78
6201,1,0.443219100008719,3,3,3,549,78
6201,0,0.43233360000886,2,4,3,550,78
6201,0,0.597010200028308,3,5,1,551,78
6201,1,0.7546827000333,1,6,1,552,78
6201,-1,-1,-1,4,3,553,78
6201,0,1.00505379994866,3,6,1,554,78
6201,1,0.666899400064722,2,2,2,555,78
6201,0,0.974041200010106,1,1,2,556,78
6201,0,0.709339899942279,3,5,1,557,78
6201,0,0.791486100060865,1,4,3,558,78
6201,1,0.798209000029601,3,3,3,559,78
6201,0,0.755743099958636,3,1,2,560,78
6201,0,0.724330099998042,2,6,1,561,78
6201,1,0.965697500039823,1,6,1,562,78
6201,0,1.16547879995778,1,2,2,563,78
6201,1,0.884353899979033,3,3,3,564,78
6201,1,0.751333700027317,2,1,2,565,78
6201,1,0.734920099959709,2,2,2,566,78
6201,0,0.703360400046222,2,3,3,567,78
6201,0,0.905580100021325,1,4,3,568,78
6201,1,1.01958309998736,1,5,1,569,78
6201,1,0.768727299990132,1,6,1,570,78
6201,0,0.752331600058824,1,2,2,571,78
6201,1,0.928360100020654,1,5,1,572,78
6201,1,0.745370300021023,2,1,2,573,78
6201,0,0.705923600005917,2,3,3,574,78
6201,1,1.04443770006765,1,6,1,575,78
6201,1,0.928855199948885,1,5,1,576,78
6201,0,0.938256699941121,2,4,3,577,78
6201,1,0.722985500004143,3,4,3,578,78
6201,0,0.700189099996351,3,1,2,579,78
6201,1,0.669961599982344,3,3,3,580,78
6201,0,1.08973599993624,1,2,2,581,78
6201,1,1.29997289995663,3,3,3,582,78
6201,1,0.750052699935623,1,6,1,583,78
6201,1,0.581968499929644,1,6,1,584,78
6201,1,0.765047400025651,1,5,1,585,78
6201,1,0.795999599969946,2,1,2,586,78
6201,1,0.730989800067618,1,5,1,587,78
6201,0,1.21167499991134,2,4,3,588,78
6201,1,0.481665699975565,2,1,2,589,78
6201,1,0.7002639999846,2,2,2,590,78
6201,1,0.886018199962564,1,5,1,591,78
6201,1,0.705109599977732,2,2,2,592,78
6201,1,0.626654800027609,3,3,3,593,78
6201,1,0.864219699986279,1,6,1,594,78
6201,1,1.07568560005166,3,4,3,595,78
6201,1,0.670682099997066,3,3,3,596,78
6201,1,0.722292199963704,2,2,2,597,78
6201,1,1.36369359993841,1,6,1,598,78
6201,1,0.707076299935579,1,5,1,599,78
6201,1,0.701070000068285,2,1,2,600,78
6201,1,0.783091600053012,3,4,3,601,78
6201,1,0.469530600006692,3,4,3,602,78
6201,1,0.720586899900809,1,6,1,603,78
6201,0,0.770475500030443,2,3,3,604,78
6201,1,0.529559700051323,3,3,3,605,78
6201,1,0.738576099975035,2,2,2,606,78
6201,1,0.507624500081874,2,1,2,607,78
6201,1,0.470258999965154,2,2,2,608,78
6201,1,1.01699399994686,1,6,1,609,78
6201,1,0.654230499989353,1,5,1,610,78
6201,1,0.770054999971762,2,1,2,611,78
6201,1,0.89730429998599,3,4,3,612,78
6201,1,0.699350000009872,1,5,1,613,78
6201,1,0.733323900029063,3,4,3,614,78
6201,1,0.662282299948856,2,1,2,615,78
6201,1,0.954332299996167,3,3,3,616,78
6201,1,0.946175499935634,1,6,1,617,78
6201,1,0.690989800030366,2,2,2,618,78
6201,1,0.605698899948038,2,2,2,619,78
6201,1,0.587578700040467,2,1,2,620,78
6201,0,1.21021470008418,1,4,3,621,78
6201,1,0.728321300004609,1,5,1,622,78
6201,1,0.729678000090644,1,6,1,623,78
6201,1,0.738684799987823,3,4,3,624,78
6201,0,0.695551199954934,2,1,3,625,39
6201,0,0.3936507999897,3,2,2,626,39
6201,0,0.920341299963184,2,3,3,627,39
6201,1,0.841307600028813,3,3,3,628,39
6201,0,0.462216399959289,1,1,3,629,39
6201,1,0.946199300000444,3,3,3,630,39
6201,0,0.810971099999733,1,2,2,631,39
6201,0,0.697007299982943,2,1,3,632,39
6201,0,0.970664600026794,3,2,2,633,39
6201,1,1.11426619999111,3,1,3,634,39
6201,0,0.763718300033361,1,2,2,635,39
6201,1,0.62694129999727,3,3,3,636,39
6201,1,0.61598869995214,3,3,3,637,39
6201,1,1.11758960003499,2,2,2,638,39
6201,1,0.750987299950793,3,1,3,639,39
6201,1,0.462648999993689,2,2,2,640,39
6201,1,0.474629300064407,3,3,3,641,39
6201,1,1.03830590005964,3,1,3,642,39
6201,1,0.587018299964257,3,1,3,643,39
6201,1,0.497677000006661,2,2,2,644,39
6201,1,0.491327999974601,3,3,3,645,39
6201,1,0.606471900013275,2,2,2,646,39
6201,1,0.380345199955627,3,3,3,647,39
6201,1,0.378799100057222,3,1,3,648,39
6201,1,0.46636059996672,3,1,3,649,39
6201,1,0.589319400023669,3,3,3,650,39
6201,1,0.524442799971439,2,2,2,651,39
6201,1,0.661439799936488,2,2,2,652,39
6201,1,0.56966299994383,3,3,3,653,39
6201,1,0.408946800045669,3,1,3,654,39
6201,1,0.398622499895282,3,3,3,655,39
6201,1,0.469063099939376,2,2,2,656,39
6201,1,0.576321200001985,3,1,3,657,39
6201,1,0.431772900046781,2,2,2,658,39
6201,1,0.340180000057444,3,3,3,659,39
6201,1,0.373144800076261,3,3,3,660,39
6201,0,0.412427999894135,2,1,3,661,39
6201,1,0.650367199908942,3,1,3,662,39
6201,1,0.510082300053909,2,2,2,663,39
6201,0,0.49963310000021,1,1,3,664,78
6201,0,0.669269799953327,1,2,3,665,78
6201,0,0.321073499973863,3,3,1,666,78
6201,0,0.377918399986811,3,4,1,667,78
6201,1,0.273645599954762,2,5,2,668,78
6201,1,0.420780599932186,2,6,2,669,78
6201,0,0.530379600008018,3,4,1,670,78
6201,1,0.963119599968195,2,6,2,671,78
6201,0,0.883180699893273,1,2,3,672,78
6201,0,0.828993299975991,1,1,3,673,78
6201,0,1.25100060005207,1,5,2,674,78
6201,1,0.974942500004545,1,4,1,675,78
6201,1,1.3584511000663,1,3,1,676,78
6201,1,0.69399619998876,3,1,3,677,78
6201,1,0.921095099998638,2,6,2,678,78
6201,1,0.466073599993251,2,6,2,679,78
6201,0,1.10155909997411,1,2,3,680,78
6201,0,0.711364699993283,3,3,1,681,78
6201,1,0.769574500038289,3,1,3,682,78
6201,0,1.21706319996156,1,2,3,683,78
6201,-1,-1,-1,3,1,684,78
6201,0,1.05602809996344,3,4,1,685,78
6201,1,0.588285800069571,2,5,2,686,78
6201,1,0.458688599988818,2,6,2,687,78
6201,1,0.702956900000572,3,2,3,688,78
6201,1,0.75312390003819,2,5,2,689,78
6201,1,0.704771899967454,3,1,3,690,78
6201,1,0.674653100082651,1,3,1,691,78
6201,1,0.742328900028951,2,6,2,692,78
6201,1,0.623172299936414,2,5,2,693,78
6201,1,0.644212900078855,1,4,1,694,78
6201,1,0.512968499911949,1,4,1,695,78
6201,1,0.850898900069296,3,1,3,696,78
6201,1,0.734970099991187,1,3,1,697,78
6201,1,0.744265799992718,3,2,3,698,78
6201,1,1.14423910004552,1,3,1,699,78
6201,1,0.552980000036769,2,6,2,700,78
6201,1,0.424885800108314,2,6,2,701,78
6201,1,0.646366499946453,2,5,2,702,78
6201,1,0.779109299997799,3,1,3,703,78
6201,1,0.882248800015077,2,5,2,704,78
6201,1,0.669110100017861,1,4,1,705,78
6201,1,0.704026799998246,3,1,3,706,78
6201,-1,-1,-1,2,3,707,78
6201,1,0.524278700002469,2,5,2,708,78
6201,1,0.509794800076634,3,2,3,709,78
6201,1,0.663655599928461,1,3,1,710,78
6201,1,0.619133500033058,2,6,2,711,78
6201,1,0.792023200076073,1,4,1,712,78
6201,0,1.18276210001204,3,3,1,713,78
6201,1,0.621570399962366,3,2,3,714,78
6201,1,0.594831999973394,2,6,2,715,78
6201,1,0.481752300052904,2,5,2,716,78
6201,1,1.10824219998904,3,1,3,717,78
6201,1,0.654334799968638,1,4,1,718,78
6201,1,0.52242179994937,1,4,1,719,78
6201,1,0.659673800109886,2,6,2,720,78
6201,1,0.791757200029679,1,3,1,721,78
6201,1,0.702114200103097,1,3,1,722,78
6201,1,0.600000599981286,3,2,3,723,78
6201,1,0.462423499906436,3,1,3,724,78
6201,1,0.570310599985532,3,2,3,725,78
6201,1,0.601397800026461,2,6,2,726,78
6201,1,0.623774099978618,2,5,2,727,78
6201,1,0.773057300015353,3,1,3,728,78
6201,1,0.636272299918346,1,4,1,729,78
6201,-1,-1,-1,5,2,730,78
6201,1,0.687352300039493,1,4,1,731,78
6201,0,0.474409299902618,2,1,3,732,78
6201,1,0.685633499990217,1,3,1,733,78
6201,1,0.608396399999037,2,6,2,734,78
6201,1,0.582066199975088,3,2,3,735,78
6201,1,0.492706099990755,3,2,3,736,78
6201,1,0.599346300004981,3,1,3,737,78
6201,1,0.605722100008279,1,4,1,738,78
6201,1,0.595755999907851,2,5,2,739,78
6201,1,0.938169399974868,2,6,2,740,78
6201,1,0.578683299943805,1,4,1,741,78
6201,0,1.2590073000174,3,1,2,742,39
6201,1,0.407058899989352,1,2,1,743,39
6201,0,0.405590799986385,2,3,1,744,39
6201,0,0.610872199991718,2,3,1,745,39
6201,0,0.624770299997181,3,1,2,746,39
6201,0,0.966104199993424,3,3,1,747,39
6201,1,1.00563859997783,1,2,1,748,39
6201,0,1.15568940003868,1,1,2,749,39
6201,1,1.05964170000516,1,2,1,750,39
6201,1,0.623638899996877,2,1,2,751,39
6201,1,0.724527399986982,1,2,1,752,39
6201,1,0.406069700024091,1,3,1,753,39
6201,1,0.484506899956614,1,3,1,754,39
6201,1,0.566975399968214,1,2,1,755,39
6201,1,0.502237600041553,2,1,2,756,39
6201,1,0.504286599927582,1,2,1,757,39
6201,1,0.650394899887033,1,3,1,758,39
6201,1,0.342332200030796,2,1,2,759,39
6201,1,0.50288859999273,2,1,2,760,39
6201,1,0.401199200074188,1,2,1,761,39
6201,1,0.350793299963698,1,3,1,762,39
6201,1,0.47875769995153,1,2,1,763,39
6201,1,0.426364200073294,1,3,1,764,39
6201,1,0.567786700092256,2,1,2,765,39
6201,1,0.414911800064147,2,1,2,766,39
6201,1,0.540813300060108,1,3,1,767,39
6201,1,0.332696500001475,1,2,1,768,39
6201,1,0.533825400052592,1,2,1,769,39
6201,1,0.446431800024584,1,3,1,770,39
6201,1,0.467169999959879,2,1,2,771,39
6201,1,0.446362399961799,1,3,1,772,39
6201,1,0.395075800013728,1,2,1,773,39
6201,1,0.417528599966317,2,1,2,774,39
6201,1,0.446951099904254,1,2,1,775,39
6201,1,0.475013100076467,1,3,1,776,39
6201,1,0.502104900078848,1,3,1,777,39
6201,1,0.560432199970819,2,1,2,778,39
6201,1,0.528127899975516,2,1,2,779,39
6201,1,0.577808799920604,1,2,1,780,39
6202,1,1.38335789974371,1,1,1,1,39
6202,1,0.904492830464733,2,2,2,2,39
6202,0,0.833105351062841,1,3,2,3,39
6202,0,0.66479215855361,3,3,2,4,39
6202,1,1.23985125312174,2,2,2,5,39
6202,1,0.839559810003266,1,1,1,6,39
6202,-1,-1,-1,2,2,7,39
6202,0,0.844736724131508,3,3,2,8,39
6202,1,1.26667592969898,1,1,1,9,39
6202,1,0.626864169913461,1,1,1,10,39
6202,1,0.658864733908558,2,2,2,11,39
6202,0,0.589684296195628,1,3,2,12,39
6202,1,0.662892781721894,2,3,2,13,39
6202,1,1.42671160375176,1,1,1,14,39
6202,1,0.681375258340267,2,3,2,15,39
6202,1,0.514474449271802,2,2,2,16,39
6202,1,0.338454920260119,1,1,1,17,39
6202,1,0.314712367617176,2,2,2,18,39
6202,1,0.330779042240465,2,2,2,19,39
6202,0,0.410834866808727,1,3,2,20,39
6202,1,0.6909542777139,1,1,1,21,39
6202,1,0.658781229765736,2,2,2,22,39
6202,1,0.402760633005528,2,3,2,23,39
6202,1,0.44312393074506,2,3,2,24,39
6202,1,0.426238641812233,1,1,1,25,39
6202,0,0.40277089990559,2,1,1,26,39
6202,1,0.490511500480352,2,2,2,27,39
6202,1,0.59455731001799,1,1,1,28,39
6202,1,0.610697564101429,2,3,2,29,39
6202,1,0.65053245863237,2,2,2,30,39
6202,1,0.538693386159139,2,3,2,31,39
6202,1,0.539698515858618,1,1,1,32,39
6202,1,0.58693447765836,2,2,2,33,39
6202,1,0.594718842607108,2,2,2,34,39
6202,1,0.634510616146144,2,3,2,35,39
6202,1,0.698882037060685,2,2,2,36,39
6202,1,0.5708103083889,1,1,1,37,39
6202,1,0.554839115939103,1,1,1,38,39
6202,1,0.578880093205953,2,3,2,39,39
6202,0,0.83798589395883,2,1,1,40,78
6202,0,0.663880457679625,2,2,1,41,78
6202,0,0.592334525776096,3,3,2,42,78
6202,0,0.475463644732372,1,4,2,43,78
6202,0,0.565555708046304,2,5,3,44,78
6202,0,0.603834140260005,1,6,3,45,78
6202,0,0.899462733024848,1,4,2,46,78
6202,1,0.92182678298559,1,1,1,47,78
6202,-1,-1,-1,3,2,48,78
6202,0,0.585693893692223,2,5,3,49,78
6202,0,0.850981053808937,3,2,1,50,78
6202,0,0.482076556174434,1,5,3,51,78
6202,0,0.562567697386839,3,3,2,52,78
6202,1,0.8425101753528,3,6,3,53,78
6202,1,0.730861382791772,3,6,3,54,78
6202,0,0.866829385660822,2,2,1,55,78
6202,0,0.802967203067965,1,4,2,56,78
6202,-1,-1,-1,1,1,57,78
6202,1,0.481339392630616,1,1,1,58,78
6202,0,0.786933724753908,2,2,1,59,78
6202,0,1.05876979928871,3,3,2,60,78
6202,1,1.18598697951529,2,4,2,61,78
6202,1,1.13165350849158,3,5,3,62,78
6202,1,1.05857986160845,3,6,3,63,78
6202,0,0.987279993132688,1,3,2,64,78
6202,1,0.578483448553015,1,1,1,65,78
6202,0,1.31538929867384,2,6,3,66,78
6202,1,0.930894852892379,2,4,2,67,78
6202,1,1.13883383737993,1,2,1,68,78
6202,1,0.714876158919651,1,2,1,69,78
6202,-1,-1,-1,5,3,70,78
6202,0,0.817057156877127,2,6,3,71,78
6202,1,0.683125765091972,3,5,3,72,78
6202,1,0.690980629427941,2,4,2,73,78
6202,1,1.3150337216357,2,3,2,74,78
6202,1,0.762221292126924,1,1,1,75,78
6202,1,1.24378108090605,2,4,2,76,78
6202,1,1.17898940148007,1,1,1,77,78
6202,0,0.81908042098803,3,2,1,78,78
6202,1,0.899063350545475,2,3,2,79,78
6202,1,1.23492177134904,3,5,3,80,78
6202,0,1.17902841570321,2,6,3,81,78
6202,1,0.65875556251558,3,6,3,82,78
6202,-1,-1,-1,3,2,83,78
6202,1,0.928848317125812,1,1,1,84,78
6202,1,0.858488212397788,2,4,2,85,78
6202,0,1.18685042596189,3,2,1,86,78
6202,1,1.0747457829566,3,5,3,87,78
6202,1,0.898563010196085,3,5,3,88,78
6202,1,0.56308788707247,2,4,2,89,78
6202,1,0.570558427047217,1,1,1,90,78
6202,0,0.683754099489306,2,2,1,91,78
6202,1,1.42693576443708,1,1,1,92,78
6202,1,1.21877433040936,3,6,3,93,78
6202,0,1.30686469009379,1,3,2,94,78
6202,-1,-1,-1,5,3,95,78
6202,1,0.777363945584511,3,6,3,96,78
6202,1,0.4266924388794,1,2,1,97,78
6202,0,1.01091440106393,1,3,2,98,78
6202,1,0.634985973709263,2,4,2,99,78
6202,0,1.2668716852786,3,2,1,100,78
6202,1,1.13089444221987,3,6,3,101,78
6202,1,0.818854549142998,3,6,3,102,78
6202,1,0.666453001031186,1,1,1,103,78
6202,1,1.17895483624307,3,5,3,104,78
6202,1,1.17898940148007,1,1,1,105,78
6202,1,1.05186701897765,2,3,2,106,78
6202,1,0.666452316567302,2,4,2,107,78
6202,1,0.619197532112594,3,5,3,108,78
6202,1,0.875086028085207,2,4,2,109,78
6202,1,0.802774869764107,1,2,1,110,78
6202,1,1.26706812533666,2,3,2,111,78
6202,1,0.570505381387193,2,3,2,112,78
6202,1,0.650319591542939,3,6,3,113,78
6202,1,0.562397266810876,1,1,1,114,78
6202,1,0.738447254305356,3,5,3,115,78
6202,1,0.569519416589173,1,2,1,116,78
6202,1,1.0984339210263,1,1,1,117,78
6202,0,1.15082078745763,2,1,1,118,39
6202,0,1.0026187444164,2,2,3,119,39
6202,0,0.794978526770137,2,3,3,120,39
6202,1,0.881481281219749,3,3,3,121,39
6202,1,1.00268103029521,3,2,3,122,39
6202,1,0.610712964451523,1,1,1,123,39
6202,1,0.554286756625515,3,2,3,124,39
6202,1,0.898845007774071,3,3,3,125,39
6202,1,0.442746108761639,1,1,1,126,39
6202,1,0.482469778507948,1,1,1,127,39
6202,1,0.883376893514651,3,2,3,128,39
6202,1,0.857392049510963,3,3,3,129,39
6202,1,0.65863133300445,3,3,3,130,39
6202,1,0.49082053420716,1,1,1,131,39
6202,1,0.514538446295774,3,3,3,132,39
6202,1,0.482593665801687,3,2,3,133,39
6202,1,0.410754442753387,1,1,1,134,39
6202,1,0.61864927955321,3,2,3,135,39
6202,1,0.490773306475603,3,2,3,136,39
6202,0,0.306652507468243,1,3,3,137,39
6202,1,0.706782417997601,1,1,1,138,39
6202,1,0.634867562097497,3,2,3,139,39
6202,1,0.674373231304344,3,3,3,140,39
6202,1,0.491067282084259,3,3,3,141,39
6202,1,0.48257278976962,1,1,1,142,39
6202,1,0.626061982649844,1,1,1,143,39
6202,1,0.61881252330204,3,2,3,144,39
6202,1,0.650535196487908,1,1,1,145,39
6202,1,0.642800797126256,3,3,3,146,39
6202,1,0.609591476546484,3,2,3,147,39
6202,1,0.626881623655208,3,3,3,148,39
6202,1,0.611182161868783,1,1,1,149,39
6202,1,0.67572948904126,3,2,3,150,39
6202,1,0.417950856441166,3,2,3,151,39
6202,1,0.634851819515461,3,3,3,152,39
6202,1,0.538725213569705,3,2,3,153,39
6202,1,0.618462764163269,1,1,1,154,39
6202,1,0.69873898489459,1,1,1,155,39
6202,1,0.625862804765347,3,3,3,156,39
6202,1,0.461178277560975,2,1,2,157,39
6202,1,1.14635639633343,2,2,2,158,39
6202,1,1.0828805914789,1,3,1,159,39
6202,1,0.858985130442306,1,3,1,160,39
6202,1,0.683021042699693,2,2,2,161,39
6202,1,0.634701580522233,2,1,2,162,39
6202,1,0.578529307371355,2,2,2,163,39
6202,1,0.410799617122393,1,3,1,164,39
6202,1,0.394753476284677,2,1,2,165,39
6202,1,0.554918171081226,2,1,2,166,39
6202,1,0.498604899155907,2,2,2,167,39
6202,1,0.330738659089548,1,3,1,168,39
6202,1,0.65038666863984,1,3,1,169,39
6202,1,0.554535900111659,2,1,2,170,39
6202,1,0.547023265826283,1,3,1,171,39
6202,1,1.08145896781934,2,2,2,172,39
6202,1,0.465490376314847,2,1,2,173,39
6202,1,0.482841440374614,2,2,2,174,39
6202,1,0.458110527310055,2,2,2,175,39
6202,1,0.346693082261481,1,3,1,176,39
6202,1,0.330471377412323,2,1,2,177,39
6202,1,0.290862012494472,2,2,2,178,39
6202,1,0.371161847084295,1,3,1,179,39
6202,1,0.338838217925513,1,3,1,180,39
6202,1,0.394655598487589,2,1,2,181,39
6202,1,0.384749407166964,2,1,2,182,39
6202,1,0.490995071551879,2,2,2,183,39
6202,1,0.418771524142358,2,1,2,184,39
6202,1,0.322919386671856,1,3,1,185,39
6202,1,0.394399268174311,2,2,2,186,39
6202,1,0.266934313389356,1,3,1,187,39
6202,1,0.346830316528212,2,1,2,188,39
6202,1,0.410733566706767,2,2,2,189,39
6202,1,0.394629246773547,2,2,2,190,39
6202,1,0.442479169316357,1,3,1,191,39
6202,1,0.562552297036746,2,2,2,192,39
6202,1,0.435130463243695,2,1,2,193,39
6202,1,0.530173568811733,2,1,2,194,39
6202,1,0.683515565135167,1,3,1,195,39
6202,-1,-1,-1,1,2,196,78
6202,1,0.458032498849207,2,2,2,197,78
6202,1,0.64320531305566,3,3,3,198,78
6202,0,0.602324221239542,1,4,3,199,78
6202,1,0.978997683443595,1,5,1,200,78
6202,1,1.13063332067395,1,6,1,201,78
6202,-1,-1,-1,4,3,202,78
6202,1,0.713221476587933,2,1,2,203,78
6202,1,0.809933980403002,3,3,3,204,78
6202,0,1.1628847393149,3,5,1,205,78
6202,1,0.8824788818456,2,2,2,206,78
6202,0,1.37809577034204,3,5,1,207,78
6202,-1,-1,-1,3,3,208,78
6202,1,0.664702152047539,1,6,1,209,78
6202,1,0.537872034023167,1,6,1,210,78
6202,1,0.370169722140417,2,2,2,211,78
6202,1,0.756320219181362,3,4,3,212,78
6202,1,0.63392642942199,2,1,2,213,78
6202,1,0.554493121337146,2,1,2,214,78
6202,1,0.54605509697285,2,2,2,215,78
6202,1,0.378724104739376,3,3,3,216,78
6202,1,1.04298512222886,3,4,3,217,78
6202,0,0.963796166397515,2,5,1,218,78
6202,1,0.770414964208612,1,6,1,219,78
6202,1,1.05891011361382,3,3,3,220,78
6202,1,0.738869566193898,2,1,2,221,78
6202,0,0.786588414630387,3,6,1,222,78
6202,1,0.882780044295941,3,4,3,223,78
6202,1,0.618997327517718,2,2,2,224,78
6202,1,0.538493523796205,2,2,2,225,78
6202,1,1.2261240631924,1,5,1,226,78
6202,1,0.80325433408143,1,6,1,227,78
6202,1,1.19496093614725,1,5,1,228,78
6202,1,1.106776463188,3,4,3,229,78
6202,0,1.08234226358763,1,3,3,230,78
6202,1,0.979050729103619,2,1,2,231,78
6202,1,0.875829694006825,3,4,3,232,78
6202,1,0.938293866798631,2,1,2,233,78
6202,1,0.570677523122868,2,2,2,234,78
6202,0,0.562829845599481,2,3,3,235,78
6202,-1,-1,-1,5,1,236,78
6202,1,0.696817020885646,1,6,1,237,78
6202,1,0.586114494435606,1,6,1,238,78
6202,0,0.618089048948605,1,3,3,239,78
6202,1,1.23546352151607,2,1,2,240,78
6202,1,0.826313795536407,3,4,3,241,78
6202,1,0.570706954909838,2,2,2,242,78
6202,1,1.14661580671964,1,5,1,243,78
6202,1,0.882830009868485,1,5,1,244,78
6202,0,1.28282131723245,1,4,3,245,78
6202,1,0.642867874208605,2,1,2,246,78
6202,1,0.642811748490203,2,2,2,247,78
6202,1,1.33875745163823,2,1,2,248,78
6202,1,0.58632291253889,1,6,1,249,78
6202,1,0.667932803815347,3,3,3,250,78
6202,1,1.01063000789145,1,5,1,251,78
6202,1,0.723158810840687,1,6,1,252,78
6202,1,0.626823786762543,2,2,2,253,78
6202,1,0.650899329266394,3,3,3,254,78
6202,1,0.843119344863226,3,4,3,255,78
6202,1,0.866823909964296,2,2,2,256,78
6202,1,0.602669873595005,1,6,1,257,78
6202,1,0.546775491267908,1,6,1,258,78
6202,1,0.962766053926316,2,1,2,259,78
6202,1,0.690844079639646,1,5,1,260,78
6202,1,1.1223232903576,2,1,2,261,78
6202,0,1.29932604634087,1,3,3,262,78
6202,1,1.23498987512721,3,4,3,263,78
6202,1,0.81042439606972,1,5,1,264,78
6202,1,0.924218971122173,3,4,3,265,78
6202,1,0.523162986050011,2,2,2,266,78
6202,1,0.643351445294684,3,3,3,267,78
6202,1,0.587412915279856,3,3,3,268,78
6202,1,0.650012611178681,1,6,1,269,78
6202,1,0.667050534713781,2,1,2,270,78
6202,1,0.938851701794192,1,5,1,271,78
6202,1,0.57898584229406,2,2,2,272,78
6202,1,0.610802970957593,2,1,2,273,78
6202,0,1.00773816388391,2,1,3,274,39
6202,1,0.667538554786006,2,2,2,275,39
6202,0,0.978470649148221,2,3,3,276,39
6202,0,0.643013664215687,1,3,3,277,39
6202,1,0.802741673454875,2,2,2,278,39
6202,1,1.01335929261404,3,1,3,279,39
6202,1,1.17102844582405,2,2,2,280,39
6202,0,0.64156876890047,1,3,3,281,39
6202,0,1.06693917304801,2,1,3,282,39
6202,1,0.690971046991763,3,1,3,283,39
6202,1,0.786671918758657,2,2,2,284,39
6202,1,0.754932134077535,3,3,3,285,39
6202,1,0.53848257244681,3,3,3,286,39
6202,1,0.554819608834805,3,1,3,287,39
6202,1,0.506335533980746,3,3,3,288,39
6202,1,0.426958693860797,2,2,2,289,39
6202,1,0.802852898224955,3,1,3,290,39
6202,1,0.521875516555156,2,2,2,291,39
6202,1,0.538622202308034,2,2,2,292,39
6202,1,0.442250901847729,3,3,3,293,39
6202,1,0.562725465439144,3,1,3,294,39
6202,1,0.794846425967989,2,2,2,295,39
6202,1,0.618243736942532,3,3,3,296,39
6202,1,0.674702456628438,3,3,3,297,39
6202,1,1.18636035251257,3,1,3,298,39
6202,1,0.506716093819705,3,1,3,299,39
6202,1,0.618801914170035,2,2,2,300,39
6202,1,0.738588937558234,3,1,3,301,39
6202,1,0.49877704087703,3,3,3,302,39
6202,1,0.442824479439878,2,2,2,303,39
6202,1,0.378715548969922,3,3,3,304,39
6202,1,0.386735025982489,3,1,3,305,39
6202,1,0.322745191573631,2,2,2,306,39
6202,1,0.594852654568967,2,2,2,307,39
6202,1,1.23492964264005,3,3,3,308,39
6202,1,0.522844027625979,2,2,2,309,39
6202,1,0.394979690361652,3,1,3,310,39
6202,1,0.362874746191665,3,1,3,311,39
6202,1,0.450841560828849,3,3,3,312,39
6202,0,0.599003905183054,1,1,3,313,78
6202,0,0.482728162212879,2,2,3,314,78
6202,1,0.7867999128066,1,3,1,315,78
6202,0,0.914550287459861,3,4,1,316,78
6202,0,1.33109252498252,1,5,2,317,78
6202,0,0.898949045702466,1,6,2,318,78
6202,0,1.05049228083226,2,4,1,319,78
6202,0,1.12338933699357,1,1,3,320,78
6202,1,0.626564376390888,1,3,1,321,78
6202,1,1.16211848621606,2,5,2,322,78
6202,-1,-1,-1,2,3,323,78
6202,0,0.937389694983722,1,5,2,324,78
6202,1,0.650771677450393,1,3,1,325,78
6202,0,0.82699757120281,3,6,2,326,78
6202,0,0.530650979751954,1,6,2,327,78
6202,0,1.32393854779366,2,2,3,328,78
6202,1,0.95501625421457,1,4,1,329,78
6202,0,1.20272066052712,2,1,3,330,78
6202,0,0.450780301645864,1,1,3,331,78
6202,0,1.20265597903926,2,2,3,332,78
6202,1,0.59471918483905,1,3,1,333,78
6202,1,0.3868903984403,1,4,1,334,78
6202,0,0.97803362137347,1,5,2,335,78
6202,0,0.763914646449848,1,6,2,336,78
6202,1,0.666857174728648,1,3,1,337,78
6202,0,1.33112298346532,1,1,3,338,78
6202,1,1.44301270597498,2,6,2,339,78
6202,1,0.618962762280717,1,4,1,340,78
6202,-1,-1,-1,2,3,341,78
6202,1,0.808572931447998,3,2,3,342,78
6202,0,0.978939846565481,3,5,2,343,78
6202,1,0.723216305472306,2,6,2,344,78
6202,1,0.514711614712724,2,5,2,345,78
6202,1,0.578896520237322,1,4,1,346,78
6202,1,0.666871548397467,1,3,1,347,78
6202,0,0.506550796693773,2,1,3,348,78
6202,1,0.874848178194952,1,4,1,349,78
6202,1,0.426956298251753,3,1,3,350,78
6202,1,0.834666262380779,3,2,3,351,78
6202,1,0.668030681597884,1,3,1,352,78
6202,1,0.769931735369028,2,5,2,353,78
6202,1,0.714824139955454,2,6,2,354,78
6202,1,0.738964021686115,2,6,2,355,78
6202,1,0.610716729002888,1,3,1,356,78
6202,1,0.458380546813714,3,1,3,357,78
6202,1,0.554288125538733,1,4,1,358,78
6202,1,0.427272176588303,3,2,3,359,78
6202,1,0.882528162954259,2,5,2,360,78
6202,1,0.474956802005181,2,5,2,361,78
6202,1,0.626597230468178,1,4,1,362,78
6202,1,1.30660151518532,3,1,3,363,78
6202,1,0.46666319873475,3,2,3,364,78
6202,1,0.674811628006864,3,1,3,365,78
6202,1,0.706700625014491,2,6,2,366,78
6202,1,0.602471037927899,1,3,1,367,78
6202,1,0.970681492995936,2,5,2,368,78
6202,1,0.68186601625348,2,6,2,369,78
6202,1,0.619561322659138,3,2,3,370,78
6202,1,0.666246294073062,1,3,1,371,78
6202,1,0.651059150710353,1,4,1,372,78
6202,1,0.634775502214325,3,2,3,373,78
6202,1,0.802752624818822,2,6,2,374,78
6202,1,0.570832553334185,2,6,2,375,78
6202,1,1.14663428714266,3,1,3,376,78
6202,1,0.602888216366409,2,5,2,377,78
6202,1,0.610645545137231,3,1,3,378,78
6202,1,0.586745908905868,1,3,1,379,78
6202,1,0.5391365740943,1,4,1,380,78
6202,1,0.619025048159529,2,5,2,381,78
6202,1,0.578941694606328,1,4,1,382,78
6202,1,0.363211842806777,3,2,3,383,78
6202,1,0.602524425819865,1,3,1,384,78
6202,1,0.554624879921903,1,3,1,385,78
6202,1,0.62669065927912,2,6,2,386,78
6202,1,0.555040689447196,3,1,3,387,78
6202,1,0.658967402923736,2,5,2,388,78
6202,1,0.522509326619911,3,2,3,389,78
6202,1,0.378975301602622,3,1,3,390,78
6202,0,0.992039386575925,2,1,1,391,78
6202,0,0.538098248085589,2,2,1,392,78
6202,1,0.730824764177669,2,3,2,393,78
6202,0,0.965348179728608,1,4,2,394,78
6202,1,1.16307878374937,3,5,3,395,78
6202,0,0.946953998471145,1,6,3,396,78
6202,0,0.93083941162331,3,4,2,397,78
6202,0,0.706849495094502,2,1,1,398,78
6202,1,1.25050076813204,2,3,2,399,78
6202,1,0.898882995301392,3,5,3,400,78
6202,1,0.786571987584466,1,2,1,401,78
6202,1,1.35489496788068,3,5,3,402,78
6202,1,1.09047159645706,2,3,2,403,78
6202,0,1.00463242609112,2,6,3,404,78
6202,1,0.47447733770241,3,6,3,405,78
6202,1,1.36296201485675,1,2,1,406,78
6202,1,1.31490538537037,2,4,2,407,78
6202,0,1.40265864845423,2,1,1,408,78
6202,1,0.844442064044415,1,1,1,409,78
6202,1,0.6824190600164,1,2,1,410,78
6202,0,1.24283276141796,3,3,2,411,78
6202,1,1.38653105686535,2,4,2,412,78
6202,1,0.738654645727365,3,5,3,413,78
6202,-1,-1,-1,6,3,414,78
6202,1,0.905145463184454,2,3,2,415,78
6202,1,1.21058852960414,1,1,1,416,78
6202,1,0.666627538361354,3,6,3,417,78
6202,1,0.722703302613809,2,4,2,418,78
6202,1,0.714714968562475,1,2,1,419,78
6202,1,0.625807021264336,1,2,1,420,78
6202,1,1.07425913179759,3,5,3,421,78
6202,1,0.674692189728376,3,6,3,422,78
6202,1,0.97066746155906,3,5,3,423,78
6202,1,0.714479172049323,2,4,2,424,78
6202,1,0.5708643807302,2,3,2,425,78
6202,1,1.00289287068881,1,1,1,426,78
6202,1,1.0828525286197,2,4,2,427,78
6202,0,0.842827080385177,2,1,1,428,78
6202,1,0.75434931628115,1,2,1,429,78
6202,1,1.17856229837344,2,3,2,430,78
6202,1,0.626697161642369,3,5,3,431,78
6202,1,0.682761974545429,3,6,3,432,78
6202,1,0.994820690262713,3,6,3,433,78
6202,1,0.658848306862637,2,3,2,434,78
6202,0,0.946840035860077,3,1,1,435,78
6202,1,0.666794204400503,2,4,2,436,78
6202,1,0.75494479657209,1,2,1,437,78
6202,1,0.587584372537094,3,5,3,438,78
6202,1,0.57877194849425,3,5,3,439,78
6202,1,0.688787961436901,2,4,2,440,78
6202,1,0.554206332555623,1,1,1,441,78
6202,1,0.546904169765185,1,2,1,442,78
6202,1,0.554885659235879,1,1,1,443,78
6202,1,0.618534974724753,3,6,3,444,78
6202,1,0.626598599381396,2,3,2,445,78
6202,0,0.707064415575587,1,5,3,446,78
6202,1,0.59455731001799,3,6,3,447,78
6202,1,0.626587990263943,1,2,1,448,78
6202,1,0.610875181519077,2,3,2,449,78
6202,1,0.986736874023336,2,4,2,450,78
6202,0,0.858625104418024,3,2,1,451,78
6202,1,1.14656447220477,3,6,3,452,78
6202,1,0.514894365565851,3,6,3,453,78
6202,0,0.83492669944826,2,1,1,454,78
6202,1,0.586538175251917,3,5,3,455,78
6202,0,0.714011343559832,3,1,1,456,78
6202,1,0.522731091696187,2,3,2,457,78
6202,1,0.810263890176429,2,4,2,458,78
6202,1,0.531528457635432,3,5,3,459,78
6202,1,0.650677564190119,2,4,2,460,78
6202,1,0.826709755710908,1,2,1,461,78
6202,1,0.818931550908019,2,3,2,462,78
6202,1,0.640982528813765,2,3,2,463,78
6202,1,0.618693085008999,3,6,3,464,78
6202,0,1.09116290116799,2,1,1,465,78
6202,1,0.562825054395944,3,5,3,466,78
6202,1,0.714326195215108,1,2,1,467,78
6202,1,0.450806995591847,1,1,1,468,78
6202,0,0.504266068819561,2,1,1,469,39
6202,0,0.906224514561472,2,2,3,470,39
6202,0,0.554889765990083,2,3,3,471,39
6202,1,0.738510909097386,3,3,3,472,39
6202,1,0.883010022880626,3,2,3,473,39
6202,1,0.482852733955951,1,1,1,474,39
6202,1,0.666945812321501,3,2,3,475,39
6202,1,0.682910502393497,3,3,3,476,39
6202,1,0.530989445294836,1,1,1,477,39
6202,1,0.682866012488375,1,1,1,478,39
6202,1,0.602668846899178,3,2,3,479,39
6202,1,0.426801268025883,3,3,3,480,39
6202,1,0.426858078222722,3,3,3,481,39
6202,1,0.41855968371965,1,1,1,482,39
6202,1,0.395055323198903,3,3,3,483,39
6202,1,0.538931578281336,3,2,3,484,39
6202,1,0.402209642605158,1,1,1,485,39
6202,1,0.426205103256507,3,2,3,486,39
6202,1,0.674437570560258,3,2,3,487,39
6202,1,0.658791838912293,3,3,3,488,39
6202,1,0.410271556131192,1,1,1,489,39
6202,1,0.835094734415179,3,2,3,490,39
6202,1,0.411031991330674,3,3,3,491,39
6202,1,0.554734735764214,3,3,3,492,39
6202,1,0.435004522572854,1,1,1,493,39
6202,1,0.554609137339867,1,1,1,494,39
6202,1,0.370843915370642,3,2,3,495,39
6202,1,0.602869051494054,1,1,1,496,39
6202,1,0.490855783908046,3,3,3,497,39
6202,1,0.386830508155981,3,2,3,498,39
6202,0,1.04908845313184,1,3,3,499,39
6202,-1,-1,-1,1,1,500,39
6202,1,0.433464145069593,3,2,3,501,39
6202,1,0.51470785017591,3,2,3,502,39
6202,1,0.506842718939879,3,3,3,503,39
6202,1,0.370979438477661,3,2,3,504,39
6202,1,0.444334056242951,1,1,1,505,39
6202,1,0.504556279905955,1,1,1,506,39
6202,1,0.346413480307092,3,3,3,507,39
6202,1,0.784313953641686,2,1,2,508,39
6202,0,0.602748586505186,3,2,2,509,39
6202,0,0.778838614904089,2,3,1,510,39
6202,1,0.619255026758765,1,3,1,511,39
6202,0,0.818430526094744,1,2,2,512,39
6202,1,0.810616729359026,2,1,2,513,39
6202,1,0.762729161520838,2,2,2,514,39
6202,1,0.618857697656495,1,3,1,515,39
6202,1,0.529970626390423,2,1,2,516,39
6202,1,0.713290607047384,2,1,2,517,39
6202,1,0.682753076573135,2,2,2,518,39
6202,1,0.498465269294684,1,3,1,519,39
6202,1,0.474804509634851,1,3,1,520,39
6202,1,0.386652548535494,2,1,2,521,39
6202,1,0.426082584890537,1,3,1,522,39
6202,1,0.610608242073795,2,2,2,523,39
6202,1,0.40250430269225,2,1,2,524,39
6202,1,0.434748192245024,2,2,2,525,39
6202,1,0.482555678259814,2,2,2,526,39
6202,1,0.554698801613995,1,3,1,527,39
6202,1,0.434741689896327,2,1,2,528,39
6202,1,0.410699001469766,2,2,2,529,39
6202,1,0.546888769415091,1,3,1,530,39
6202,1,0.626676285610301,1,3,1,531,39
6202,1,0.62689668177336,2,1,2,532,39
6202,1,0.546497942690621,2,1,2,533,39
6202,1,0.971018247364555,2,2,2,534,39
6202,1,0.490867419735878,2,1,2,535,39
6202,1,0.385602928945445,1,3,1,536,39
6202,1,0.618825528028538,2,2,2,537,39
6202,1,0.394433833411313,1,3,1,538,39
6202,1,0.690205136110308,2,1,2,539,39
6202,1,0.54661909211427,2,2,2,540,39
6202,1,0.562328820800758,2,2,2,541,39
6202,1,0.450779959413921,1,3,1,542,39
6202,-1,-1,-1,2,2,543,39
6202,1,0.610008654999547,2,1,2,544,39
6202,1,0.546977749225334,2,1,2,545,39
6202,1,0.514412505639484,1,3,1,546,39
6202,1,0.720053415265284,2,1,2,547,78
6202,0,0.666541980855982,3,2,2,548,78
6202,0,0.682506328681484,1,3,3,549,78
6202,0,0.834914721403038,1,4,3,550,78
6202,0,1.14627734119131,3,5,1,551,78
6202,1,0.851009116668138,1,6,1,552,78
6202,0,1.00282339799742,1,4,3,553,78
6202,1,0.85062034332077,2,1,2,554,78
6202,0,0.874595612418489,2,3,3,555,78
6202,0,1.47500300307001,3,5,1,556,78
6202,0,1.34656987944618,1,2,2,557,78
6202,0,0.707023347960785,2,5,1,558,78
6202,0,1.34693503892049,2,3,3,559,78
6202,1,0.930982463789405,1,6,1,560,78
6202,1,0.706708496305509,1,6,1,561,78
6202,0,1.03488008771092,1,2,2,562,78
6202,-1,-1,-1,4,3,563,78
6202,1,0.652596448126133,2,1,2,564,78
6202,1,0.531195125557133,2,1,2,565,78
6202,1,0.619016150172683,2,2,2,566,78
6202,0,0.978646213174216,2,3,3,567,78
6202,0,0.97859624758712,1,4,3,568,78
6202,1,0.811498998460593,1,5,1,569,78
6202,1,0.715088341559749,1,6,1,570,78
6202,0,1.05092485962086,1,3,3,571,78
6202,1,0.714064046987914,2,1,2,572,78
6202,1,0.658870209590532,1,6,1,573,78
6202,0,1.01090618755552,2,4,3,574,78
6202,1,0.914737487299135,2,2,2,575,78
6202,1,0.649736431529163,2,2,2,576,78
6202,1,1.16275948310795,1,5,1,577,78
6202,1,0.553891480900347,1,6,1,578,78
6202,1,0.468005082788295,1,5,1,579,78
6202,1,1.16199117661745,3,4,3,580,78
6202,0,1.09840448922478,1,3,3,581,78
6202,-1,-1,-1,1,2,582,78
6202,1,0.847974220494507,3,4,3,583,78
6202,1,0.79485292834579,2,1,2,584,78
6202,1,0.802744411295862,2,2,2,585,78
6202,1,0.858603201704682,3,3,3,586,78
6202,1,1.13885813571687,1,5,1,587,78
6202,1,0.618771455687238,1,6,1,588,78
6202,1,0.626655067360844,1,6,1,589,78
6202,1,0.738776479614899,3,3,3,590,78
6202,1,0.658916068423423,2,1,2,591,78
6202,1,0.690755442046793,3,4,3,592,78
6202,1,0.546834697059239,2,2,2,593,78
6202,0,0.530481575871818,3,5,1,594,78
6202,1,0.537778262994834,1,5,1,595,78
6202,1,0.889448739239015,3,4,3,596,78
6202,1,0.634656406153226,2,1,2,597,78
6202,1,0.770723997964524,2,2,2,598,78
6202,1,0.562925670019467,2,1,2,599,78
6202,1,0.538899750885321,1,6,1,600,78
6202,1,0.762600825255504,3,3,3,601,78
6202,1,1.06699700994068,1,5,1,602,78
6202,1,0.626721459979308,1,6,1,603,78
6202,1,0.626549660490127,2,2,2,604,78
6202,1,1.01042056310689,3,3,3,605,78
6202,1,0.474577611093991,3,4,3,606,78
6202,1,0.666552932219929,2,2,2,607,78
6202,-1,-1,-1,6,1,608,78
6202,1,0.512706488792901,1,6,1,609,78
6202,1,0.554821662211907,2,1,2,610,78
6202,1,0.67428562042187,1,5,1,611,78
6202,1,0.506152098678285,2,1,2,612,78
6202,1,0.530865558001096,3,3,3,613,78
6202,1,0.410969021002529,3,4,3,614,78
6202,1,0.642622495273827,1,5,1,615,78
6202,1,1.42701037059305,3,4,3,616,78
6202,1,0.553945895473589,2,2,2,617,78
6202,1,0.562599867014796,3,3,3,618,78
6202,1,0.482650133766583,3,3,3,619,78
6202,1,0.61068113707006,1,6,1,620,78
6202,1,0.642345288899378,2,1,2,621,78
6202,1,0.681686687705223,1,5,1,622,78
6202,1,0.649881879304303,2,2,2,623,78
6202,1,0.64413583658461,2,1,2,624,78
6202,0,0.725496584374923,2,1,3,625,39
6202,1,0.315239401897998,2,2,2,626,39
6202,0,0.434896035629208,2,3,3,627,39
6202,1,0.754990655404981,3,3,3,628,39
6202,1,0.94671785972605,2,2,2,629,39
6202,0,0.746852082345868,1,1,3,630,39
6202,1,0.746913683760795,2,2,2,631,39
6202,1,0.458659806550713,3,3,3,632,39
6202,1,0.338817684125388,3,1,3,633,39
6202,1,0.794814940803917,3,1,3,634,39
6202,1,0.882362181393546,2,2,2,635,39
6202,1,0.507190424672444,3,3,3,636,39
6202,1,0.362773103857762,3,3,3,637,39
6202,1,0.346850165864453,3,1,3,638,39
6202,1,0.418492264390807,3,3,3,639,39
6202,1,0.354629739595111,2,2,2,640,39
6202,1,0.450636565030436,3,1,3,641,39
6202,1,0.578180574957514,2,2,2,642,39
6202,1,0.484212413983187,2,2,2,643,39
6202,1,0.63424333446892,3,3,3,644,39
6202,1,0.714871367701562,3,1,3,645,39
6202,1,0.626418586383807,2,2,2,646,39
6202,1,0.538870661344845,3,3,3,647,39
6202,1,0.738671414990677,3,3,3,648,39
6202,1,0.570495114501682,3,1,3,649,39
6202,1,0.514744126572623,3,1,3,650,39
6202,1,0.690337236927007,2,2,2,651,39
6202,1,0.362671461538412,3,1,3,652,39
6202,1,0.514971709548263,3,3,3,653,39
6202,1,0.49882118855021,2,2,2,654,39
6202,-1,-1,-1,3,3,655,39
6202,1,0.50479584094137,3,1,3,656,39
6202,1,0.986742007473367,2,2,2,657,39
6202,1,0.618439150304766,2,2,2,658,39
6202,1,0.562969133243314,3,3,3,659,39
6202,0,0.4581409857783,3,2,2,660,39
6202,1,0.539944921489223,3,1,3,661,39
6202,1,0.474037229840178,3,1,3,662,39
6202,1,0.562851406109985,3,3,3,663,39
6202,0,0.619187265197979,2,1,3,664,78
6202,0,0.818204996496206,2,2,3,665,78
6202,0,1.18668786667695,2,3,1,666,78
6202,0,1.34669753124763,2,4,1,667,78
6202,1,0.498938231234206,2,5,2,668,78
6202,1,0.546632439101813,2,6,2,669,78
6202,0,0.802565082747606,3,4,1,670,78
6202,0,1.21075998687593,1,1,3,671,78
6202,0,1.49805356653815,3,3,1,672,78
6202,0,1.01060673625034,1,5,2,673,78
6202,1,1.33867086742248,3,2,3,674,78
6202,1,1.24292995475116,2,5,2,675,78
6202,1,1.06665820218041,1,3,1,676,78
6202,1,0.938641230299254,2,6,2,677,78
6202,1,0.58686260934337,2,6,2,678,78
6202,1,0.747001636889763,3,2,3,679,78
6202,0,0.962077144824434,3,4,1,680,78
6202,0,0.922597485085134,1,1,3,681,78
6202,1,0.76269664967549,3,1,3,682,78
6202,1,1.31452277215431,3,2,3,683,78
6202,1,1.42677080955764,1,3,1,684,78
6202,1,0.633936354104662,1,4,1,685,78
6202,0,0.770212706251186,1,5,2,686,78
6202,1,0.587317090859869,2,6,2,687,78
6202,1,0.962560373664019,1,3,1,688,78
6202,1,1.17011503379035,3,1,3,689,78
6202,1,0.602886162989307,2,6,2,690,78
6202,1,1.05812572230934,1,4,1,691,78
6202,1,0.706661953023286,3,2,3,692,78
6202,1,0.482750749404659,3,2,3,693,78
6202,0,1.31494816411578,1,5,2,694,78
6202,1,0.466757654226967,2,6,2,695,78
6202,1,0.402875964529812,2,5,2,696,78
6202,1,0.682729462685529,1,4,1,697,78
6202,0,1.13063366290589,3,3,1,698,78
6202,1,0.768991971635842,3,1,3,699,78
6202,1,0.72407872522308,1,4,1,700,78
6202,1,1.24233002545952,3,1,3,701,78
6202,1,0.762314720923314,3,2,3,702,78
6202,1,1.00305645666958,1,3,1,703,78
6202,1,0.77098854178621,2,5,2,704,78
6202,1,0.378818217999651,2,6,2,705,78
6202,1,0.554384634422604,2,6,2,706,78
6202,1,0.963077483291272,1,3,1,707,78
6202,1,0.698528513414203,3,1,3,708,78
6202,1,0.61048640817171,1,4,1,709,78
6202,1,0.52321876953647,3,2,3,710,78
6202,1,0.762693227370619,2,5,2,711,78
6202,1,1.08230427606031,2,5,2,712,78
6202,1,0.722875444349484,1,4,1,713,78
6202,1,1.15510550781619,3,1,3,714,78
6202,1,0.578967361856485,3,2,3,715,78
6202,1,0.48270694394887,3,1,3,716,78
6202,1,0.602770831450471,2,6,2,717,78
6202,1,0.658847622413305,1,3,1,718,78
6202,1,0.842054324908531,2,5,2,719,78
6202,1,0.561750794222462,2,6,2,720,78
6202,1,0.675359538348857,3,2,3,721,78
6202,0,0.842845218576258,3,3,1,722,78
6202,1,0.618740312755108,1,4,1,723,78
6202,1,0.586882458679611,3,2,3,724,78
6202,1,0.458668020073674,2,6,2,725,78
6202,1,0.531172538365354,2,6,2,726,78
6202,1,0.794755392766092,3,1,3,727,78
6202,1,0.682771214749664,2,5,2,728,78
6202,1,0.418726349758799,3,1,3,729,78
6202,1,0.610587708259118,1,3,1,730,78
6202,1,0.634566741879098,1,4,1,731,78
6202,1,0.85074628397706,2,5,2,732,78
6202,1,1.17847674085351,1,4,1,733,78
6202,1,0.690829363753437,3,2,3,734,78
6202,1,0.659044746920699,1,3,1,735,78
6202,0,0.63451951413299,2,3,1,736,78
6202,1,1.29090205341345,2,6,2,737,78
6202,1,0.754789766360773,3,1,3,738,78
6202,1,1.20267103717197,2,5,2,739,78
6202,1,0.657358579424908,3,2,3,740,78
6202,1,1.17087238891691,3,1,3,741,78
6202,1,0.407892030532821,2,1,2,742,39
6202,0,1.17874881373427,3,2,1,743,39
6202,0,0.658409567928175,3,3,1,744,39
6202,0,0.762704863183899,2,3,1,745,39
6202,1,1.05085093794332,1,2,1,746,39
6202,1,0.371336726646405,2,1,2,747,39
6202,1,0.562939017007011,1,2,1,748,39
6202,1,0.386643308316707,1,3,1,749,39
6202,1,0.370547886370332,2,1,2,750,39
6202,0,0.962817730673123,1,1,2,751,39
6202,1,0.578655932506081,1,2,1,752,39
6202,1,0.506675368436845,1,3,1,753,39
6202,1,0.458914083472337,1,3,1,754,39
6202,0,0.506824238516856,1,1,2,755,39
6202,1,0.722911720731645,1,3,1,756,39
6202,1,0.514169180052704,1,2,1,757,39
6202,1,0.370281973620877,2,1,2,758,39
6202,1,0.378622804637416,1,2,1,759,39
6202,1,0.354817966115661,1,2,1,760,39
6202,1,0.434836829852429,1,3,1,761,39
6202,0,0.418590142202447,1,1,2,762,39
6202,1,0.498945075829397,1,2,1,763,39
6202,1,0.473812384690973,1,3,1,764,39
6202,1,0.458501696266467,1,3,1,765,39
6202,1,0.386306211716146,2,1,2,766,39
6202,0,0.403871511778561,1,1,2,767,39
6202,1,0.706774546706583,1,2,1,768,39
6202,1,0.498155893321382,2,1,2,769,39
6202,1,0.466824731323868,1,3,1,770,39
6202,1,0.674858513535582,1,2,1,771,39
6202,1,0.706801925116451,1,3,1,772,39
6202,1,0.466819940105779,2,1,2,773,39
6202,1,0.393599476534291,1,2,1,774,39
6202,1,0.362552707709256,1,2,1,775,39
6202,1,0.498671634020866,1,3,1,776,39
6202,1,0.48265458275273,1,2,1,777,39
6202,1,0.458598205135786,2,1,2,778,39
6202,0,0.394710355292773,1,1,2,779,39
6202,1,0.618399451617734,1,3,1,780,39
6204,-1,-1,-1,1,1,1,39
6204,0,1.16899399994873,1,2,2,2,39
6204,-1,-1,-1,3,2,3,39
6204,0,0.52234370005317,1,3,2,4,39
6204,-1,-1,-1,2,2,5,39
6204,0,0.893661000067368,3,1,1,6,39
6204,0,0.808255600044504,1,2,2,7,39
6204,0,1.21432129992172,1,3,2,8,39
6204,0,1.05158850015141,2,1,1,9,39
6204,0,0.943603599909693,3,1,1,10,39
6204,1,1.05643710005097,2,2,2,11,39
6204,1,0.892076999880373,2,3,2,12,39
6204,1,0.54281140002422,2,2,2,13,39
6204,0,0.711863599950448,2,1,1,14,39
6204,0,0.993870300007984,1,3,2,15,39
6204,1,1.02427670010366,2,3,2,16,39
6204,0,0.741646399954334,3,1,1,17,39
6204,1,0.678274700185284,2,2,2,18,39
6204,1,0.425424800021574,2,2,2,19,39
6204,1,0.815013299928978,2,3,2,20,39
6204,1,1.24409279995598,1,1,1,21,39
6204,1,0.760710699949414,2,3,2,22,39
6204,1,0.777069800067693,1,1,1,23,39
6204,1,0.944150199880823,2,2,2,24,39
6204,1,0.665046300040558,2,2,2,25,39
6204,1,0.70022050011903,1,1,1,26,39
6204,1,0.606381400022656,2,3,2,27,39
6204,1,0.4043678001035,2,3,2,28,39
6204,1,0.666245999978855,1,1,1,29,39
6204,1,0.621799600077793,2,2,2,30,39
6204,0,0.419284999836236,2,1,1,31,39
6204,1,0.688266900135204,2,3,2,32,39
6204,1,0.379362100036815,2,2,2,33,39
6204,1,0.794394899858162,2,2,2,34,39
6204,1,0.536979000084102,1,1,1,35,39
6204,1,0.713568999897689,2,2,2,36,39
6204,1,0.530981000047177,2,3,2,37,39
6204,1,0.467326499987394,2,3,2,38,39
6204,1,0.454988100100309,1,1,1,39,39
6204,0,0.829812499927357,2,1,1,40,78
6204,0,0.850394200067967,2,2,1,41,78
6204,0,0.470395700074732,1,3,2,42,78
6204,1,0.513818199979141,2,4,2,43,78
6204,1,0.54678099998273,3,5,3,44,78
6204,0,0.770813900046051,2,6,3,45,78
6204,1,0.538303500041366,3,6,3,46,78
6204,0,0.770758199971169,2,1,1,47,78
6204,0,1.05852999980561,3,4,2,48,78
6204,1,0.950355399865657,1,2,1,49,78
6204,0,1.1501423001755,1,5,3,50,78
6204,1,1.11032239999622,2,3,2,51,78
6204,-1,-1,-1,2,1,52,78
6204,1,0.626306199934334,2,3,2,53,78
6204,1,0.647723500151187,3,5,3,54,78
6204,0,0.771506699966267,3,4,2,55,78
6204,1,0.747091199969873,3,6,3,56,78
6204,1,0.818779700202867,1,1,1,57,78
6204,1,0.440374400001019,1,1,1,58,78
6204,0,0.628927000099793,2,2,1,59,78
6204,1,1.01052789995447,2,3,2,60,78
6204,1,0.688121699960902,2,4,2,61,78
6204,0,0.818785399897024,2,5,3,62,78
6204,1,0.76825760002248,3,6,3,63,78
6204,0,0.415558199863881,3,4,2,64,78
6204,1,0.525100700091571,3,6,3,65,78
6204,1,1.05443250015378,3,5,3,66,78
6204,1,0.86648300010711,1,1,1,67,78
6204,0,0.797423100098968,1,3,2,68,78
6204,1,0.899723999900743,1,2,1,69,78
6204,1,0.645678699947894,3,6,3,70,78
6204,0,0.698341599898413,3,4,2,71,78
6204,1,0.996344899991527,3,5,3,72,78
6204,1,0.922842199914157,2,3,2,73,78
6204,1,1.09243490011431,1,1,1,74,78
6204,1,0.430964200058952,1,2,1,75,78
6204,1,0.715422899927944,1,2,1,76,78
6204,1,0.549142200034112,1,1,1,77,78
6204,1,0.636925400001928,3,6,3,78,78
6204,1,0.481642300030217,3,6,3,79,78
6204,1,0.948327699908987,2,4,2,80,78
6204,1,0.54816640005447,2,3,2,81,78
6204,0,0.828259599860758,1,5,3,82,78
6204,1,0.865747699979693,2,3,2,83,78
6204,1,0.396987899905071,2,4,2,84,78
6204,1,0.65095439995639,1,2,1,85,78
6204,1,0.791047299979255,3,5,3,86,78
6204,1,0.65378490020521,1,1,1,87,78
6204,0,0.537405499955639,1,5,3,88,78
6204,1,0.779540300136432,2,3,2,89,78
6204,0,0.393699300009757,2,6,3,90,78
6204,1,1.03241329989396,2,4,2,91,78
6204,1,0.852779099950567,1,1,1,92,78
6204,1,0.553017499856651,1,1,1,93,78
6204,1,0.929267999948934,2,4,2,94,78
6204,1,0.946300600189716,1,2,1,95,78
6204,1,0.619026100030169,3,6,3,96,78
6204,1,0.480255299946293,3,5,3,97,78
6204,-1,-1,-1,2,1,98,78
6204,1,0.516816100105643,1,2,1,99,78
6204,1,0.686500899959356,2,3,2,100,78
6204,1,0.521015499951318,3,6,3,101,78
6204,1,0.63439549994655,2,4,2,102,78
6204,1,0.951054600067437,3,5,3,103,78
6204,1,0.599290299927816,1,1,1,104,78
6204,1,0.629051800118759,3,5,3,105,78
6204,1,0.618180700112134,1,2,1,106,78
6204,1,0.502819699933752,2,3,2,107,78
6204,1,0.58548179990612,1,1,1,108,78
6204,1,0.840467899804935,2,3,2,109,78
6204,1,0.740684600081295,2,4,2,110,78
6204,1,0.517449900042266,3,6,3,111,78
6204,1,0.366809300146997,3,6,3,112,78
6204,1,0.550196399912238,2,3,2,113,78
6204,1,0.62239919998683,3,5,3,114,78
6204,0,0.643741199979559,1,4,2,115,78
6204,1,0.599936299957335,2,3,2,116,78
6204,1,0.806464300025254,1,2,1,117,78
6204,0,0.704184500034899,3,1,1,118,39
6204,1,1.05006569996476,3,2,3,119,39
6204,0,0.854485800024122,1,3,3,120,39
6204,0,0.714089800138026,2,3,3,121,39
6204,1,0.915833899984136,3,2,3,122,39
6204,0,0.861117399996147,2,1,1,123,39
6204,1,0.593111800029874,3,2,3,124,39
6204,1,0.639567599864677,3,3,3,125,39
6204,1,0.628146299859509,1,1,1,126,39
6204,1,0.849853599909693,1,1,1,127,39
6204,1,0.629443999845535,3,2,3,128,39
6204,1,0.506803299998865,3,3,3,129,39
6204,1,0.709032400045544,3,2,3,130,39
6204,1,0.91108960006386,1,1,1,131,39
6204,1,0.697057799901813,3,3,3,132,39
6204,1,0.794812900014222,3,3,3,133,39
6204,1,0.713739500148222,1,1,1,134,39
6204,1,0.515050699934363,3,2,3,135,39
6204,1,0.492419899906963,3,2,3,136,39
6204,1,0.63105530012399,3,3,3,137,39
6204,1,0.963808299973607,1,1,1,138,39
6204,1,0.626905099954456,3,3,3,139,39
6204,1,0.744540099985898,1,1,1,140,39
6204,1,0.785100699868053,3,2,3,141,39
6204,1,0.903730100020766,3,2,3,142,39
6204,1,0.609653199790046,1,1,1,143,39
6204,1,0.575897099915892,3,3,3,144,39
6204,1,0.678848499897867,3,3,3,145,39
6204,1,0.698337600100785,1,1,1,146,39
6204,1,0.772425199858844,3,2,3,147,39
6204,1,0.939751800149679,1,1,1,148,39
6204,1,0.636432000203058,3,3,3,149,39
6204,1,0.761058999923989,3,2,3,150,39
6204,1,0.472799699986354,3,2,3,151,39
6204,1,0.564420599956065,1,1,1,152,39
6204,1,0.451936199795455,3,2,3,153,39
6204,1,0.631797999842092,3,3,3,154,39
6204,1,0.500632799929008,3,3,3,155,39
6204,1,0.806192900054157,1,1,1,156,39
6204,0,0.939239100087434,3,1,2,157,39
6204,0,1.03567410004325,3,2,2,158,39
6204,0,0.368423100095242,3,3,1,159,39
6204,0,0.591899499995634,2,3,1,160,39
6204,1,0.454340199939907,2,2,2,161,39
6204,1,0.570378600154072,2,1,2,162,39
6204,1,1.00166309997439,2,2,2,163,39
6204,1,0.575676799984649,1,3,1,164,39
6204,1,0.782891199924052,2,1,2,165,39
6204,1,0.597409000154585,2,1,2,166,39
6204,1,0.747440199833363,2,2,2,167,39
6204,1,0.395776099991053,1,3,1,168,39
6204,1,0.49850090011023,2,2,2,169,39
6204,1,0.396384600084275,2,1,2,170,39
6204,1,0.395207199966535,1,3,1,171,39
6204,1,0.601754999952391,1,3,1,172,39
6204,1,0.551504599861801,2,1,2,173,39
6204,1,0.423579799942672,2,2,2,174,39
6204,1,0.532826399896294,2,2,2,175,39
6204,1,0.389670700067654,1,3,1,176,39
6204,1,0.828520700102672,2,1,2,177,39
6204,1,1.00968690006994,1,3,1,178,39
6204,1,0.49595019989647,2,1,2,179,39
6204,1,0.506514500128105,2,2,2,180,39
6204,1,0.548450700007379,2,2,2,181,39
6204,1,0.724425600143149,2,1,2,182,39
6204,1,0.957811099942774,1,3,1,183,39
6204,1,0.54184089996852,1,3,1,184,39
6204,1,0.494409100152552,2,1,2,185,39
6204,1,0.433140400098637,2,2,2,186,39
6204,1,0.669781900011003,2,1,2,187,39
6204,1,0.592949699843302,1,3,1,188,39
6204,1,0.535443200031295,2,2,2,189,39
6204,1,0.464302300009876,2,2,2,190,39
6204,1,0.867951499996707,2,1,2,191,39
6204,1,0.535072099883109,2,2,2,192,39
6204,1,0.583740500034764,1,3,1,193,39
6204,1,0.566568400012329,1,3,1,194,39
6204,1,0.549767600139603,2,1,2,195,39
6204,0,0.692182800034061,3,1,2,196,78
6204,0,0.887072099838406,3,2,2,197,78
6204,0,1.13757020002231,2,3,3,198,78
6204,0,0.898171100066975,2,4,3,199,78
6204,0,0.740347499959171,3,5,1,200,78
6204,0,1.06109600001946,3,6,1,201,78
6204,0,0.425036799861118,3,6,1,202,78
6204,1,1.15022409986705,2,1,2,203,78
6204,0,1.23066750005819,1,4,3,204,78
6204,1,0.867051400011405,2,2,2,205,78
6204,0,1.16659140004776,2,5,1,206,78
6204,0,1.3497430998832,1,3,3,207,78
6204,1,1.12571160006337,2,2,2,208,78
6204,1,1.43904059985653,3,3,3,209,78
6204,0,1.02781580016017,2,5,1,210,78
6204,0,1.04113120003603,2,4,3,211,78
6204,0,0.933466899907216,2,6,1,212,78
6204,1,0.894244400085881,2,1,2,213,78
6204,1,0.849151500035077,2,1,2,214,78
6204,0,0.925264700083062,1,2,2,215,78
6204,1,1.30250539979897,3,3,3,216,78
6204,1,0.920441499911249,3,4,3,217,78
6204,0,1.08972489996813,3,5,1,218,78
6204,-1,-1,-1,6,1,219,78
6204,1,1.02245709998533,3,4,3,220,78
6204,0,0.779562100069597,3,6,1,221,78
6204,1,1.21899680001661,1,5,1,222,78
6204,1,0.77617309987545,2,1,2,223,78
6204,1,0.543822699924931,3,3,3,224,78
6204,0,0.984503700165078,3,2,2,225,78
6204,0,0.951099900063127,2,6,1,226,78
6204,0,0.535219999961555,1,4,3,227,78
6204,0,0.935776100028306,3,5,1,228,78
6204,0,0.800154099939391,2,3,3,229,78
6204,1,0.854188799858093,2,1,2,230,78
6204,1,1.1221076999791,2,2,2,231,78
6204,1,0.691836300073192,2,2,2,232,78
6204,1,0.766629799967632,2,1,2,233,78
6204,1,0.885791900102049,1,6,1,234,78
6204,1,0.472363900160417,1,6,1,235,78
6204,0,1.15575489983894,2,4,3,236,78
6204,1,0.939685099991038,3,3,3,237,78
6204,1,1.3804069000762,1,5,1,238,78
6204,1,0.899154299870133,3,3,3,239,78
6204,1,0.957274100044742,3,4,3,240,78
6204,1,1.02924009994604,2,2,2,241,78
6204,1,0.882455100072548,1,5,1,242,78
6204,1,1.20505400002003,2,1,2,243,78
6204,1,0.898986199870706,1,5,1,244,78
6204,0,0.812972499988973,2,3,3,245,78
6204,0,0.946905400138348,3,6,1,246,78
6204,0,1.32333360007033,2,4,3,247,78
6204,1,1.02029879996553,2,1,2,248,78
6204,1,0.561891400022432,2,1,2,249,78
6204,1,0.76992699992843,3,4,3,250,78
6204,0,1.27298120013438,1,2,2,251,78
6204,1,1.42864519986324,1,6,1,252,78
6204,1,0.809883300215006,1,5,1,253,78
6204,1,0.959572599967942,2,2,2,254,78
6204,1,0.423858199967071,2,2,2,255,78
6204,1,0.765079799806699,3,3,3,256,78
6204,0,1.13238289998844,3,6,1,257,78
6204,1,0.909168000100181,3,4,3,258,78
6204,1,0.806946099968627,1,5,1,259,78
6204,1,0.709347700001672,2,1,2,260,78
6204,1,0.854901599930599,1,5,1,261,78
6204,1,0.819050500169396,2,2,2,262,78
6204,1,1.00024720001966,3,3,3,263,78
6204,1,1.02246740018018,2,1,2,264,78
6204,1,0.763732699910179,3,3,3,265,78
6204,1,1.17880639992654,3,4,3,266,78
6204,1,0.610519799869508,1,6,1,267,78
6204,1,0.416528799803928,1,6,1,268,78
6204,1,0.869675199966878,3,3,3,269,78
6204,1,0.936926699941978,1,5,1,270,78
6204,1,0.961859799921513,3,4,3,271,78
6204,1,0.905808300012723,3,3,3,272,78
6204,1,0.739724599989131,2,2,2,273,78
6204,1,0.796562599949539,3,1,3,274,39
6204,1,0.842242700047791,2,2,2,275,39
6204,0,0.583156900014728,1,3,3,276,39
6204,0,0.565538800088689,2,3,3,277,39
6204,1,1.32485700002871,2,2,2,278,39
6204,1,0.878608700120822,3,1,3,279,39
6204,1,0.521824700059369,2,2,2,280,39
6204,1,0.95487799984403,3,3,3,281,39
6204,1,0.73087490000762,3,1,3,282,39
6204,1,0.539909200044349,3,1,3,283,39
6204,1,0.652406600071117,2,2,2,284,39
6204,1,0.824408299988136,3,3,3,285,39
6204,1,0.629527099896222,2,2,2,286,39
6204,1,0.539036099798977,3,1,3,287,39
6204,1,0.403683900134638,3,3,3,288,39
6204,1,0.44182479986921,3,3,3,289,39
6204,1,0.630463799927384,3,1,3,290,39
6204,1,0.435129800112918,2,2,2,291,39
6204,1,0.575794499833137,2,2,2,292,39
6204,1,0.5191797001753,3,3,3,293,39
6204,1,0.760178399970755,3,1,3,294,39
6204,1,0.544477799907327,3,3,3,295,39
6204,1,0.585292600095272,3,1,3,296,39
6204,1,0.416021100012586,2,2,2,297,39
6204,1,0.421111200004816,2,2,2,298,39
6204,1,0.666369199985638,3,1,3,299,39
6204,1,0.701792899984866,3,3,3,300,39
6204,1,0.551777499960735,3,3,3,301,39
6204,1,0.703509799903259,3,1,3,302,39
6204,1,0.793538400204852,2,2,2,303,39
6204,1,0.9526389001403,3,1,3,304,39
6204,1,0.664487500209361,3,3,3,305,39
6204,0,0.571728199953213,3,2,2,306,39
6204,1,0.666953800013289,2,2,2,307,39
6204,1,0.734505099942908,3,1,3,308,39
6204,1,0.847142699873075,2,2,2,309,39
6204,1,0.539201000006869,3,3,3,310,39
6204,1,0.811773499939591,3,3,3,311,39
6204,1,0.945518000051379,3,1,3,312,39
6204,1,0.897586499806494,3,1,3,313,78
6204,0,0.779464799910784,2,2,3,314,78
6204,1,0.954915299778804,1,3,1,315,78
6204,1,0.66715390002355,1,4,1,316,78
6204,1,0.950377400033176,2,5,2,317,78
6204,1,0.750475299777463,2,6,2,318,78
6204,1,0.542262900155038,2,6,2,319,78
6204,1,0.623104400001466,3,1,3,320,78
6204,1,0.828212099848315,1,4,1,321,78
6204,0,0.953811099985614,2,2,3,322,78
6204,1,0.865866699954495,2,5,2,323,78
6204,1,1.10919979983009,1,3,1,324,78
6204,1,0.97523199999705,3,2,3,325,78
6204,0,1.02222130005248,2,3,1,326,78
6204,1,0.81940420018509,2,5,2,327,78
6204,1,0.808825500076637,1,4,1,328,78
6204,1,0.911114000016823,2,6,2,329,78
6204,1,0.832810699939728,3,1,3,330,78
6204,1,1.02164310007356,3,1,3,331,78
6204,1,0.539241599850357,3,2,3,332,78
6204,1,0.851729999994859,1,3,1,333,78
6204,1,0.51982060004957,1,4,1,334,78
6204,1,0.440951899858192,2,5,2,335,78
